blockNum,trialNum,trialType,condition,posture,switchTrialType,congruantTrialType,cueType,shapeType,shapeColor,cueFileName,stimuliFileName,correctAnswer,untimedTrials.thisRepN,untimedTrials.thisTrialN,untimedTrials.thisN,untimedTrials.thisIndex,selectSolid1.thisRepN,selectSolid1.thisTrialN,selectSolid1.thisN,selectSolid1.thisIndex,selectDashed1.thisRepN,selectDashed1.thisTrialN,selectDashed1.thisN,selectDashed1.thisIndex,timedTrials.thisRepN,timedTrials.thisTrialN,timedTrials.thisN,timedTrials.thisIndex,selectSolid2.thisRepN,selectSolid2.thisTrialN,selectSolid2.thisN,selectSolid2.thisIndex,selectDashed2.thisRepN,selectDashed2.thisTrialN,selectDashed2.thisN,selectDashed2.thisIndex,postures.thisRepN,postures.thisTrialN,postures.thisN,postures.thisIndex,blocks.thisRepN,blocks.thisTrialN,blocks.thisN,blocks.thisIndex,trials.thisRepN,trials.thisTrialN,trials.thisN,trials.thisIndex,selectSolid.thisRepN,selectSolid.thisTrialN,selectSolid.thisN,selectSolid.thisIndex,selectDashed.thisRepN,selectDashed.thisTrialN,selectDashed.thisN,selectDashed.thisIndex,text_3.started,text_3.stopped,key_resp_2.keys,key_resp_2.rt,key_resp_2.started,key_resp_2.stopped,image_4.started,image_4.stopped,key_resp_4.keys,key_resp_4.rt,key_resp_4.started,key_resp_4.stopped,image_5.started,image_5.stopped,key_resp_5.keys,key_resp_5.rt,key_resp_5.started,key_resp_5.stopped,image_6.started,image_6.stopped,key_resp_6.keys,key_resp_6.rt,key_resp_6.started,key_resp_6.stopped,image_7.started,image_7.stopped,key_resp_7.keys,key_resp_7.rt,key_resp_7.started,key_resp_7.stopped,image_8.started,image_8.stopped,key_resp_8.keys,key_resp_8.rt,key_resp_8.started,key_resp_8.stopped,image_9.started,image_9.stopped,key_resp_9.keys,key_resp_9.rt,key_resp_9.started,key_resp_9.stopped,image_10.started,image_10.stopped,key_resp_10.keys,key_resp_10.rt,key_resp_10.started,key_resp_10.stopped,image_11.started,image_11.stopped,key_resp_11.keys,key_resp_11.rt,key_resp_11.started,key_resp_11.stopped,cue_untimed_image.started,cue_untimed_image.stopped,stimuli_untimed_image.started,stimuli_untimed_image.stopped,untimed_resp.keys,untimed_resp.corr,untimed_resp.rt,untimed_resp.started,untimed_resp.stopped,text_2.started,text_2.stopped,sound_1.started,sound_1.stopped,image_2.started,image_2.stopped,image_12.started,image_12.stopped,key_resp_12.keys,key_resp_12.rt,key_resp_12.started,key_resp_12.stopped,image_13.started,image_13.stopped,key_resp_13.keys,key_resp_13.rt,key_resp_13.started,key_resp_13.stopped,cue_timed_image.started,cue_timed_image.stopped,stimuli_timed_image.started,stimuli_timed_image.stopped,timed_resp.keys,timed_resp.corr,timed_resp.started,timed_resp.stopped,timed_resp.rt,image.started,image.stopped,key_response.keys,key_response.rt,key_response.started,key_response.stopped,text.started,text.stopped,key_resp.keys,key_resp.rt,key_resp.started,key_resp.stopped,cue_image.started,cue_image.stopped,stimuli_image.started,stimuli_image.stopped,exp_resp.keys,exp_resp.corr,exp_resp.started,exp_resp.stopped,sound_2.started,sound_2.stopped,image_3.started,image_3.stopped,exp_resp.rt,participant,session,condition,date,expName,psychopyVersion,frameRate,
,,,01,,,,,,,,,,,,,,,,,,,,,,,,,,,,,,,,,,,,,,,,,,,,,,,,,,,,,,65.75828981399536,None,2,7.862396001815796,65.75828981399536,None,,,,,,,,,,,,,,,,,,,,,,,,,,,,,,,,,,,,,,,,,,,,,,,,,,,,,,,,,,,,,,,,,,,,,,,,,,,,,,,,,,,,,,,,,,,,,,,,,,,,,,,,,,,,,,1000,001,01,2021_Nov_02_1513,task-switching-replication,2021.2.3,60.004177384327946,
,,,01,,,,,,,,,,,,,,,,,,,,,,,,,,,,,,,,,,,,,,,,,,,,,,,,,,,,,,,,,,,,73.66772985458374,None,2,8.540557861328125,73.66772985458374,None,,,,,,,,,,,,,,,,,,,,,,,,,,,,,,,,,,,,,,,,,,,,,,,,,,,,,,,,,,,,,,,,,,,,,,,,,,,,,,,,,,,,,,,,,,,,,,,,,,,,,,,,1000,001,01,2021_Nov_02_1513,task-switching-replication,2021.2.3,60.004177384327946,
,,,01,,,,,,,,,,,,,,,,,,,,,,,,,,,,,,,,,,,,,,,,,,,,,,,,,,,,,,,,,,,,,,,,,,82.2398419380188,None,1,5.970659017562866,82.2398419380188,None,,,,,,,,,,,,,,,,,,,,,,,,,,,,,,,,,,,,,,,,,,,,,,,,,,,,,,,,,,,,,,,,,,,,,,,,,,,,,,,,,,,,,,,,,,,,,,,,,,1000,001,01,2021_Nov_02_1513,task-switching-replication,2021.2.3,60.004177384327946,
,,,01,,,,,,,,,,,,,,,,,,,,,,,,,,,,,,,,,,,,,,,,,,,,,,,,,,,,,,,,,,,,,,,,,,,,,,,,88.25491499900818,None,2,7.23462700843811,88.25491499900818,None,,,,,,,,,,,,,,,,,,,,,,,,,,,,,,,,,,,,,,,,,,,,,,,,,,,,,,,,,,,,,,,,,,,,,,,,,,,,,,,,,,,,,,,,,,,,1000,001,01,2021_Nov_02_1513,task-switching-replication,2021.2.3,60.004177384327946,
,,,01,,,,,,,,,,,,,,,,,,,,,,,,,,,,,,,,,,,,,,,,,,,,,,,,,,,,,,,,,,,,,,,,,,,,,,,,,,,,,,95.55997395515442,None,1,4.63446307182312,95.55997395515442,None,,,,,,,,,,,,,,,,,,,,,,,,,,,,,,,,,,,,,,,,,,,,,,,,,,,,,,,,,,,,,,,,,,,,,,,,,,,,,,,,,,,,,,1000,001,01,2021_Nov_02_1513,task-switching-replication,2021.2.3,60.004177384327946,
,,,01,,,,,,,,,,,,,,,,,,,,,,,,,,,,,,,,,,,,,,,,,,,,,,,,,,,,,,,,,,,,,,,,,,,,,,,,,,,,,,,,,,,,100.26062297821045,None,1,13.903568983078003,100.26062297821045,None,,,,,,,,,,,,,,,,,,,,,,,,,,,,,,,,,,,,,,,,,,,,,,,,,,,,,,,,,,,,,,,,,,,,,,,,,,,,,,,,1000,001,01,2021_Nov_02_1513,task-switching-replication,2021.2.3,60.004177384327946,
,,,01,,,,,,,,,,,,,,,,,,,,,,,,,,,,,,,,,,,,,,,,,,,,,,,,,,,,,,,,,,,,,,,,,,,,,,,,,,,,,,,,,,,,,,,,,,114.2340579032898,None,2,25.19812798500061,114.2340579032898,None,,,,,,,,,,,,,,,,,,,,,,,,,,,,,,,,,,,,,,,,,,,,,,,,,,,,,,,,,,,,,,,,,,,,,,,,,,1000,001,01,2021_Nov_02_1513,task-switching-replication,2021.2.3,60.004177384327946,
,,,01,,,,,,,,,,,,,,,,,,,,,,,,,,,,,,,,,,,,,,,,,,,,,,,,,,,,,,,,,,,,,,,,,,,,,,,,,,,,,,,,,,,,,,,,,,,,,,,,139.51981496810913,None,2,0.8662238121032715,139.51981496810913,None,,,,,,,,,,,,,,,,,,,,,,,,,,,,,,,,,,,,,,,,,,,,,,,,,,,,,,,,,,,,,,,,,,,,1000,001,01,2021_Nov_02_1513,task-switching-replication,2021.2.3,60.004177384327946,
,,,01,,,,,,,,,,,,,,,,,,,,,,,,,,,,,,,,,,,,,,,,,,,,,,,,,,,,,,,,,,,,,,,,,,,,,,,,,,,,,,,,,,,,,,,,,,,,,,,,,,,,,,140.48337197303772,None,2,17.542569875717163,140.48337197303772,None,,,,,,,,,,,,,,,,,,,,,,,,,,,,,,,,,,,,,,,,,,,,,,,,,,,,,,,,,,,,,,1000,001,01,2021_Nov_02_1513,task-switching-replication,2021.2.3,60.004177384327946,
1,1,untimed,01,standing,buffer,buffer,solid,square,yellow,stimuli/solid-rectangle.png,stimuli/yellow-square.png,2,0,0,0,0,,,,,,,,,,,,,,,,,,,,,,,,,,,,,,,,,,,,,,,,,,,,,,,,,,,,,,,,,,,,,,,,,,,,,,,,,,,,,,,,,,,,,,,,,,,,,,,158.18802189826965,None,159.18775486946106,None,2,1,5.779084920883179,159.18775486946106,None,165.06209182739258,None,,,,,,,,,,,,,,,,,,,,,,,,,,,,,,,,,,,,,,,,,,,,,,,,,,,1000,001,01,2021_Nov_02_1513,task-switching-replication,2021.2.3,60.004177384327946,
1,2,untimed,01,standing,switch,congruant,dashed,square,blue,stimuli/dashed-rectangle.png,stimuli/blue-square.png,2,0,1,1,1,,,,,,,,,,,,,,,,,,,,,,,,,,,,,,,,,,,,,,,,,,,,,,,,,,,,,,,,,,,,,,,,,,,,,,,,,,,,,,,,,,,,,,,,,,,,,,,165.29184794425964,None,166.2914388179779,None,2,1,0.8783869743347168,166.2914388179779,None,167.26450395584106,None,,,,,,,,,,,,,,,,,,,,,,,,,,,,,,,,,,,,,,,,,,,,,,,,,,,1000,001,01,2021_Nov_02_1513,task-switching-replication,2021.2.3,60.004177384327946,
1,3,untimed,01,standing,switch,congruant,solid,triangle,yellow,stimuli/solid-rectangle.png,stimuli/yellow-triangle.png,2,0,2,2,2,0,0,0,0,,,,,,,,,,,,,,,,,,,,,,,,,,,,,,,,,,,,,,,,,,,,,,,,,,,,,,,,,,,,,,,,,,,,,,,,,,,,,,,,,,,,,,,,,,,167.49364590644836,None,168.49303793907166,None,1,0,7.400308847427368,168.49303793907166,None,,,175.9648778438568,176.9828019142151,175.9969778060913,None,,,,,,,,,,,,,,,,,,,,,,,,,,,,,,,,,,,,,,,,,,,,,,,1000,001,01,2021_Nov_02_1513,task-switching-replication,2021.2.3,60.004177384327946,
1,3,untimed,01,standing,switch,congruant,solid,triangle,yellow,stimuli/solid-rectangle.png,stimuli/yellow-triangle.png,2,0,2,2,2,,,,,,,,,,,,,,,,,,,,,,,,,,,,,,,,,,,,,,,,,,,,,,,,,,,,,,,,,,,,,,,,,,,,,,,,,,,,,,,,,,,,,,,,,,,,,,,,,,,,,,,,181.02528595924377,None,,,,,,,,,,,,,,,,,,,,,,,,,,,,,,,,,,,,,,,,,,,,,,,,,,,1000,001,01,2021_Nov_02_1513,task-switching-replication,2021.2.3,60.004177384327946,
1,4,untimed,01,standing,switch,congruant,dashed,square,yellow,stimuli/dashed-rectangle.png,stimuli/yellow-square.png,2,0,3,3,3,,,,,,,,,,,,,,,,,,,,,,,,,,,,,,,,,,,,,,,,,,,,,,,,,,,,,,,,,,,,,,,,,,,,,,,,,,,,,,,,,,,,,,,,,,,,,,,181.22267699241638,None,182.2244849205017,None,2,1,0.8635480403900146,182.2244849205017,None,183.19819688796997,None,,,,,,,,,,,,,,,,,,,,,,,,,,,,,,,,,,,,,,,,,,,,,,,,,,,1000,001,01,2021_Nov_02_1513,task-switching-replication,2021.2.3,60.004177384327946,
1,5,untimed,01,standing,noswitch,congruant,dashed,square,blue,stimuli/dashed-rectangle.png,stimuli/blue-square.png,2,0,4,4,4,,,,,,,,,,,,,,,,,,,,,,,,,,,,,,,,,,,,,,,,,,,,,,,,,,,,,,,,,,,,,,,,,,,,,,,,,,,,,,,,,,,,,,,,,,,,,,,183.42778086662292,None,184.4281668663025,None,2,1,1.5905780792236328,184.4281668663025,None,186.11984992027283,None,,,,,,,,,,,,,,,,,,,,,,,,,,,,,,,,,,,,,,,,,,,,,,,,,,,1000,001,01,2021_Nov_02_1513,task-switching-replication,2021.2.3,60.004177384327946,
1,6,untimed,01,standing,noswitch,incongruant,dashed,triangle,yellow,stimuli/dashed-rectangle.png,stimuli/yellow-triangle.png,1,0,5,5,5,,,,,,,,,,,,,,,,,,,,,,,,,,,,,,,,,,,,,,,,,,,,,,,,,,,,,,,,,,,,,,,,,,,,,,,,,,,,,,,,,,,,,,,,,,,,,,,186.34940195083618,None,187.3508598804474,None,1,1,0.7290229797363281,187.3508598804474,None,188.2092728614807,None,,,,,,,,,,,,,,,,,,,,,,,,,,,,,,,,,,,,,,,,,,,,,,,,,,,1000,001,01,2021_Nov_02_1513,task-switching-replication,2021.2.3,60.004177384327946,
1,7,untimed,01,standing,switch,congruant,solid,triangle,blue,stimuli/solid-rectangle.png,stimuli/blue-triangle.png,1,0,6,6,6,,,,,,,,,,,,,,,,,,,,,,,,,,,,,,,,,,,,,,,,,,,,,,,,,,,,,,,,,,,,,,,,,,,,,,,,,,,,,,,,,,,,,,,,,,,,,,,188.43956589698792,None,189.4402949810028,None,1,1,0.5293138027191162,189.4402949810028,None,190.11608481407166,None,,,,,,,,,,,,,,,,,,,,,,,,,,,,,,,,,,,,,,,,,,,,,,,,,,,1000,001,01,2021_Nov_02_1513,task-switching-replication,2021.2.3,60.004177384327946,
1,8,untimed,01,standing,noswitch,incongruant,solid,triangle,yellow,stimuli/solid-rectangle.png,stimuli/yellow-triangle.png,2,0,7,7,7,,,,,,,,,,,,,,,,,,,,,,,,,,,,,,,,,,,,,,,,,,,,,,,,,,,,,,,,,,,,,,,,,,,,,,,,,,,,,,,,,,,,,,,,,,,,,,,190.34543991088867,None,191.34571599960327,None,2,1,2.0291907787323,191.34571599960327,None,193.51421999931335,None,,,,,,,,,,,,,,,,,,,,,,,,,,,,,,,,,,,,,,,,,,,,,,,,,,,1000,001,01,2021_Nov_02_1513,task-switching-replication,2021.2.3,60.004177384327946,
1,9,untimed,01,standing,noswitch,incongruant,solid,square,blue,stimuli/solid-rectangle.png,stimuli/blue-square.png,1,0,8,8,8,,,,,,,,,,,,,,,,,,,,,,,,,,,,,,,,,,,,,,,,,,,,,,,,,,,,,,,,,,,,,,,,,,,,,,,,,,,,,,,,,,,,,,,,,,,,,,,193.74322080612183,None,194.74212384223938,None,1,1,0.5723481178283691,194.74212384223938,None,195.41614985466003,None,,,,,,,,,,,,,,,,,,,,,,,,,,,,,,,,,,,,,,,,,,,,,,,,,,,1000,001,01,2021_Nov_02_1513,task-switching-replication,2021.2.3,60.004177384327946,
1,10,untimed,01,standing,switch,congruant,dashed,triangle,yellow,stimuli/dashed-rectangle.png,stimuli/yellow-triangle.png,1,0,9,9,9,,,,,,,,,,,,,,,,,,,,,,,,,,,,,,,,,,,,,,,,,,,,,,,,,,,,,,,,,,,,,,,,,,,,,,,,,,,,,,,,,,,,,,,,,,,,,,,195.64511680603027,None,196.64367699623108,None,1,1,0.6688849925994873,196.64367699623108,None,197.43748784065247,None,,,,,,,,,,,,,,,,,,,,,,,,,,,,,,,,,,,,,,,,,,,,,,,,,,,1000,001,01,2021_Nov_02_1513,task-switching-replication,2021.2.3,60.004177384327946,
1,11,untimed,01,standing,switch,incongruant,solid,square,yellow,stimuli/solid-rectangle.png,stimuli/yellow-square.png,2,0,10,10,10,,,,,,,,,,,,,,,,,,,,,,,,,,,,,,,,,,,,,,,,,,,,,,,,,,,,,,,,,,,,,,,,,,,,,,,,,,,,,,,,,,,,,,,,,,,,,,,197.6666419506073,None,198.6659379005432,None,2,1,1.3549439907073975,198.6659379005432,None,200.11725783348083,None,,,,,,,,,,,,,,,,,,,,,,,,,,,,,,,,,,,,,,,,,,,,,,,,,,,1000,001,01,2021_Nov_02_1513,task-switching-replication,2021.2.3,60.004177384327946,
1,12,untimed,01,standing,switch,incongruant,dashed,triangle,blue,stimuli/dashed-rectangle.png,stimuli/blue-triangle.png,1,0,11,11,11,,,,,,,,,,,,,,,,,,,,,,,,,,,,,,,,,,,,,,,,,,,,,,,,,,,,,,,,,,,,,,,,,,,,,,,,,,,,,,,,,,,,,,,,,,,,,,,200.34747099876404,None,201.3478488922119,None,1,1,0.596937894821167,201.3478488922119,None,202.08431386947632,None,,,,,,,,,,,,,,,,,,,,,,,,,,,,,,,,,,,,,,,,,,,,,,,,,,,1000,001,01,2021_Nov_02_1513,task-switching-replication,2021.2.3,60.004177384327946,
,,,01,,,,,,,,,,,,,,,,,,,,,,,,,,,,,,,,,,,,,,,,,,,,,,,,,,,,,,,,,,,,,,,,,,,,,,,,,,,,,,,,,,,,,,,,,,,,,,,,,,,,,,,,,,,,,,,,,,,,,,,,,,,202.31378698349,None,2,5.167819023132324,202.31378698349,None,,,,,,,,,,,,,,,,,,,,,,,,,,,,,,,,,,,,,,,,,1000,001,01,2021_Nov_02_1513,task-switching-replication,2021.2.3,60.004177384327946,
,,,01,,,,,,,,,,,,,,,,,,,,,,,,,,,,,,,,,,,,,,,,,,,,,,,,,,,,,,,,,,,,,,,,,,,,,,,,,,,,,,,,,,,,,,,,,,,,,,,,,,,,,,,,,,,,,,,,,,,,,,,,,,,,,,,,,207.5932698249817,None,2,6.371304035186768,207.5932698249817,None,,,,,,,,,,,,,,,,,,,,,,,,,,,,,,,,,,,1000,001,01,2021_Nov_02_1513,task-switching-replication,2021.2.3,60.004177384327946,
1,1,timed,01,standing,buffer,buffer,solid,triangle,yellow,stimuli/solid-rectangle.png,stimuli/yellow-triangle.png,2,,,,,,,,,,,,,0,0,0,0,0,0,0,0,,,,,,,,,,,,,,,,,,,,,,,,,,,,,,,,,,,,,,,,,,,,,,,,,,,,,,,,,,,,,,,,,,,,,,,,,,,,,,,,,,,,,,,,,,216.64479980468752,217.69070291519165,216.67630791664124,None,,,,,,,,,,,,,214.12452292442322,None,215.10918498039246,None,None,0,215.10918498039246,None,,,,,,,,,,,,,,,,,,,,,,,,,,,1000,001,01,2021_Nov_02_1513,task-switching-replication,2021.2.3,60.004177384327946,
1,1,timed,01,standing,buffer,buffer,solid,triangle,yellow,stimuli/solid-rectangle.png,stimuli/yellow-triangle.png,2,,,,,,,,,,,,,0,0,0,0,,,,,,,,,,,,,,,,,,,,,,,,,,,,,,,,,,,,,,,,,,,,,,,,,,,,,,,,,,,,,,,,,,,,,,,,,,,,,,,,,,,,,,,,,,,,221.69506692886353,None,,,,,,,,,,,,,,,,,,,,,,,,,,,,,,,,,,,,,,,,,,,,,,,,,,,1000,001,01,2021_Nov_02_1513,task-switching-replication,2021.2.3,60.004177384327946,
1,2,timed,01,standing,noswitch,incongruant,solid,triangle,blue,stimuli/solid-rectangle.png,stimuli/blue-triangle.png,1,,,,,,,,,,,,,0,1,1,1,,,,,,,,,,,,,,,,,,,,,,,,,,,,,,,,,,,,,,,,,,,,,,,,,,,,,,,,,,,,,,,,,,,,,,,,,,,,,,,,,,,,,,,,,,,,223.48521089553833,None,,,,,,,,,,,,,,,,,221.8916699886322,None,222.87543487548828,None,1,1,222.87543487548828,None,0.508167028427124,,,,,,,,,,,,,,,,,,,,,,,,,,1000,001,01,2021_Nov_02_1513,task-switching-replication,2021.2.3,60.004177384327946,
1,3,timed,01,standing,noswitch,congruant,solid,square,blue,stimuli/solid-rectangle.png,stimuli/blue-square.png,1,,,,,,,,,,,,,0,2,2,2,,,,,,,,,,,,,,,,,,,,,,,,,,,,,,,,,,,,,,,,,,,,,,,,,,,,,,,,,,,,,,,,,,,,,,,,,,,,,,,,,,,,,,,,,,,,225.42677688598633,None,,,,,,,,,,,,,,,,,223.7141718864441,None,224.6987099647522,None,1,1,224.6987099647522,None,0.6067509651184082,,,,,,,,,,,,,,,,,,,,,,,,,,1000,001,01,2021_Nov_02_1513,task-switching-replication,2021.2.3,60.004177384327946,
1,4,timed,01,standing,noswitch,congruant,solid,triangle,blue,stimuli/solid-rectangle.png,stimuli/blue-triangle.png,1,,,,,,,,,,,,,0,3,3,3,,,,,,,,,,,,,,,,,,,,,,,,,,,,,,,,,,,,,,,,,,,,,,,,,,,,,,,,,,,,,,,,,,,,,,,,,,,,,,,,,,,,,,,,,,,,227.24905800819397,None,,,,,,,,,,,,,,,,,225.65582180023193,None,226.63968586921692,None,1,1,226.63968586921692,None,0.4778728485107422,,,,,,,,,,,,,,,,,,,,,,,,,,1000,001,01,2021_Nov_02_1513,task-switching-replication,2021.2.3,60.004177384327946,
1,5,timed,01,standing,noswitch,incongruant,solid,square,yellow,stimuli/solid-rectangle.png,stimuli/yellow-square.png,2,,,,,,,,,,,,,0,4,4,4,,,,,,,,,,,,,,,,,,,,,,,,,,,,,,,,,,,,,,,,,,,,,,,,,,,,,,,,,,,,,,,,,,,,,,,,,,,,,,,,,,,,,,,,,,,,229.25447297096252,None,,,,,,,,,,,,,,,,,227.47822284698486,None,228.46259188652039,None,2,1,228.46259188652039,None,0.6671559810638428,,,,,,,,,,,,,,,,,,,,,,,,,,1000,001,01,2021_Nov_02_1513,task-switching-replication,2021.2.3,60.004177384327946,
1,6,timed,01,standing,switch,incongruant,dashed,triangle,yellow,stimuli/dashed-rectangle.png,stimuli/yellow-triangle.png,1,,,,,,,,,,,,,0,5,5,5,,,,,,,,,,,,,,,,,,,,,,,,,,,,,,,,,,,,,,,,,,,,,,,,,,,,,,,,,,,,,,,,,,,,,,,,,,,,,,,,,,,,,,,,,,,,231.25362396240234,None,,,,,,,,,,,,,,,,,229.483069896698,None,230.46651601791382,None,1,1,230.46651601791382,None,0.6434829235076904,,,,,,,,,,,,,,,,,,,,,,,,,,1000,001,01,2021_Nov_02_1513,task-switching-replication,2021.2.3,60.004177384327946,
1,7,timed,01,standing,noswitch,incongruant,dashed,square,blue,stimuli/dashed-rectangle.png,stimuli/blue-square.png,2,,,,,,,,,,,,,0,6,6,6,,,,,,,,,,,,,,,,,,,,,,,,,,,,,,,,,,,,,,,,,,,,,,,,,,,,,,,,,,,,,,,,,,,,,,,,,,,,,,,,,,,,,,,,,,,,233.1360318660736,None,,,,,,,,,,,,,,,,,231.48272681236267,None,232.46720600128174,None,2,1,232.46720600128174,None,0.5576920509338379,,,,,,,,,,,,,,,,,,,,,,,,,,1000,001,01,2021_Nov_02_1513,task-switching-replication,2021.2.3,60.004177384327946,
1,8,timed,01,standing,noswitch,incongruant,dashed,triangle,yellow,stimuli/dashed-rectangle.png,stimuli/yellow-triangle.png,1,,,,,,,,,,,,,0,7,7,7,,,,,,,,,,,,,,,,,,,,,,,,,,,,,,,,,,,,,,,,,,,,,,,,,,,,,,,,,,,,,,,,,,,,,,,,,,,,,,,,,,,,,,,,,,,,235.08367896080017,None,,,,,,,,,,,,,,,,,233.3677749633789,None,234.35387182235718,None,1,1,234.35387182235718,None,0.6127128601074219,,,,,,,,,,,,,,,,,,,,,,,,,,1000,001,01,2021_Nov_02_1513,task-switching-replication,2021.2.3,60.004177384327946,
1,9,timed,01,standing,switch,incongruant,solid,square,yellow,stimuli/solid-rectangle.png,stimuli/yellow-square.png,2,,,,,,,,,,,,,0,8,8,8,,,,,,,,,,,,,,,,,,,,,,,,,,,,,,,,,,,,,,,,,,,,,,,,,,,,,,,,,,,,,,,,,,,,,,,,,,,,,,,,,,,,,,,,,,,,237.61551880836487,None,,,,,,,,,,,,,,,,,235.31268095970154,None,236.29788184165955,None,2,1,236.29788184165955,None,1.212813138961792,,,,,,,,,,,,,,,,,,,,,,,,,,1000,001,01,2021_Nov_02_1513,task-switching-replication,2021.2.3,60.004177384327946,
1,10,timed,01,standing,noswitch,congruant,solid,square,yellow,stimuli/solid-rectangle.png,stimuli/yellow-square.png,2,,,,,,,,,,,,,0,9,9,9,,,,,,,,,,,,,,,,,,,,,,,,,,,,,,,,,,,,,,,,,,,,,,,,,,,,,,,,,,,,,,,,,,,,,,,,,,,,,,,,,,,,,,,,,,,,239.61535096168518,None,,,,,,,,,,,,,,,,,237.84410881996155,None,238.82834196090698,None,2,1,238.82834196090698,None,0.6422510147094727,,,,,,,,,,,,,,,,,,,,,,,,,,1000,001,01,2021_Nov_02_1513,task-switching-replication,2021.2.3,60.004177384327946,
1,11,timed,01,standing,noswitch,incongruant,solid,triangle,blue,stimuli/solid-rectangle.png,stimuli/blue-triangle.png,1,,,,,,,,,,,,,0,10,10,10,,,,,,,,,,,,,,,,,,,,,,,,,,,,,,,,,,,,,,,,,,,,,,,,,,,,,,,,,,,,,,,,,,,,,,,,,,,,,,,,,,,,,,,,,,,,241.67730593681335,None,,,,,,,,,,,,,,,,,239.8441858291626,None,240.8297119140625,None,1,1,240.8297119140625,None,0.7139379978179932,,,,,,,,,,,,,,,,,,,,,,,,,,1000,001,01,2021_Nov_02_1513,task-switching-replication,2021.2.3,60.004177384327946,
1,12,timed,01,standing,switch,incongruant,dashed,square,yellow,stimuli/dashed-rectangle.png,stimuli/yellow-square.png,2,,,,,,,,,,,,,0,11,11,11,,,,,,,,,,,,,,,,,,,,,,,,,,,,,,,,,,,,,,,,,,,,,,,,,,,,,,,,,,,,,,,,,,,,,,,,,,,,,,,,,,,,,,,,,,,,243.50009179115295,None,,,,,,,,,,,,,,,,,241.90614199638367,None,242.89069080352783,None,2,1,242.89069080352783,None,0.5019772052764893,,,,,,,,,,,,,,,,,,,,,,,,,,1000,001,01,2021_Nov_02_1513,task-switching-replication,2021.2.3,60.004177384327946,
1,13,timed,01,standing,noswitch,congruant,dashed,square,yellow,stimuli/dashed-rectangle.png,stimuli/yellow-square.png,2,,,,,,,,,,,,,0,12,12,12,,,,,,,,,,,,,,,,,,,,,,,,,,,,,,,,,,,,,,,,,,,,,,,,,,,,,,,,,,,,,,,,,,,,,,,,,,,,,,,,,,,,,,,,,,,,245.2634289264679,None,,,,,,,,,,,,,,,,,243.72889494895935,None,244.71312880516052,None,2,1,244.71312880516052,None,0.4584081172943115,,,,,,,,,,,,,,,,,,,,,,,,,,1000,001,01,2021_Nov_02_1513,task-switching-replication,2021.2.3,60.004177384327946,
1,14,timed,01,standing,noswitch,incongruant,dashed,triangle,blue,stimuli/dashed-rectangle.png,stimuli/blue-triangle.png,1,,,,,,,,,,,,,0,13,13,13,,,,,,,,,,,,,,,,,,,,,,,,,,,,,,,,,,,,,,,,,,,,,,,,,,,,,,,,,,,,,,,,,,,,,,,,,,,,,,,,,,,,,,,,,,,,247.3226718902588,None,,,,,,,,,,,,,,,,,245.4924328327179,None,246.47669100761414,None,1,1,246.47669100761414,None,0.7026050090789795,,,,,,,,,,,,,,,,,,,,,,,,,,1000,001,01,2021_Nov_02_1513,task-switching-replication,2021.2.3,60.004177384327946,
1,15,timed,01,standing,switch,incongruant,solid,triangle,yellow,stimuli/solid-rectangle.png,stimuli/yellow-triangle.png,2,,,,,,,,,,,,,0,14,14,14,,,,,,,,,,,,,,,,,,,,,,,,,,,,,,,,,,,,,,,,,,,,,,,,,,,,,,,,,,,,,,,,,,,,,,,,,,,,,,,,,,,,,,,,,,,,249.73484897613525,None,,,,,,,,,,,,,,,,,247.55168080329895,None,248.53556489944458,None,2,1,248.53556489944458,None,1.0906150341033936,,,,,,,,,,,,,,,,,,,,,,,,,,1000,001,01,2021_Nov_02_1513,task-switching-replication,2021.2.3,60.004177384327946,
1,16,timed,01,standing,switch,congruant,dashed,square,yellow,stimuli/dashed-rectangle.png,stimuli/yellow-square.png,2,,,,,,,,,,,,,0,15,15,15,,,,,,,,,,,,,,,,,,,,,,,,,,,,,,,,,,,,,,,,,,,,,,,,,,,,,,,,,,,,,,,,,,,,,,,,,,,,,,,,,,,,,,,,,,,,251.79524397850037,None,,,,,,,,,,,,,,,,,249.9636960029602,None,250.94885993003845,None,2,1,250.94885993003845,None,0.7076120376586914,,,,,,,,,,,,,,,,,,,,,,,,,,1000,001,01,2021_Nov_02_1513,task-switching-replication,2021.2.3,60.004177384327946,
1,17,timed,01,standing,switch,incongruant,solid,square,blue,stimuli/solid-rectangle.png,stimuli/blue-square.png,1,,,,,,,,,,,,,0,16,16,16,,,,,,,,,,,,,,,,,,,,,,,,,,,,,,,,,,,,,,,,,,,,,,,,,,,,,,,,,,,,,,,,,,,,,,,,,,,,,,,,,,,,,,,,,,,,254.38517093658447,None,,,,,,,,,,,,,,,,,252.02413487434387,None,253.0082929134369,None,1,1,253.0082929134369,None,1.263301134109497,,,,,,,,,,,,,,,,,,,,,,,,,,1000,001,01,2021_Nov_02_1513,task-switching-replication,2021.2.3,60.004177384327946,
1,18,timed,01,standing,switch,congruant,dashed,triangle,blue,stimuli/dashed-rectangle.png,stimuli/blue-triangle.png,1,,,,,,,,,,,,,0,17,17,17,,,,,,,,,,,,,,,,,,,,,,,,,,,,,,,,,,,,,,,,,,,,,,,,,,,,,,,,,,,,,,,,,,,,,,,,,,,,,,,,,,,,,,,,,,,,256.67305088043213,None,,,,,,,,,,,,,,,,,254.66558694839478,None,255.64982295036316,None,1,1,255.64982295036316,None,0.907505989074707,,,,,,,,,,,,,,,,,,,,,,,,,,1000,001,01,2021_Nov_02_1513,task-switching-replication,2021.2.3,60.004177384327946,
1,19,timed,01,standing,switch,incongruant,solid,triangle,yellow,stimuli/solid-rectangle.png,stimuli/yellow-triangle.png,2,,,,,,,,,,,,,0,18,18,18,,,,,,,,,,,,,,,,,,,,,,,,,,,,,,,,,,,,,,,,,,,,,,,,,,,,,,,,,,,,,,,,,,,,,,,,,,,,,,,,,,,,,,,,,,,,258.96811079978943,None,,,,,,,,,,,,,,,,,256.9019730091095,None,257.88589882850647,None,2,1,257.88589882850647,None,0.9588000774383545,,,,,,,,,,,,,,,,,,,,,,,,,,1000,001,01,2021_Nov_02_1513,task-switching-replication,2021.2.3,60.004177384327946,
1,20,timed,01,standing,switch,congruant,dashed,square,blue,stimuli/dashed-rectangle.png,stimuli/blue-square.png,2,,,,,,,,,,,,,0,19,19,19,,,,,,,,,,,,,,,,,,,,,,,,,,,,,,,,,,,,,,,,,,,,,,,,,,,,,,,,,,,,,,,,,,,,,,,,,,,,,,,,,,,,,,,,,,,,261.4404399394989,None,,,,,,,,,,,,,,,,,259.19757890701294,None,260.18171787261963,None,2,1,260.18171787261963,None,1.1676950454711914,,,,,,,,,,,,,,,,,,,,,,,,,,1000,001,01,2021_Nov_02_1513,task-switching-replication,2021.2.3,60.004177384327946,
1,21,timed,01,standing,noswitch,incongruant,dashed,triangle,blue,stimuli/dashed-rectangle.png,stimuli/blue-triangle.png,1,,,,,,,,,,,,,0,20,20,20,,,,,,,,,,,,,,,,,,,,,,,,,,,,,,,,,,,,,,,,,,,,,,,,,,,,,,,,,,,,,,,,,,,,,,,,,,,,,,,,,,,,,,,,,,,,263.6150949001312,None,,,,,,,,,,,,,,,,,261.6696720123291,None,262.65281200408936,None,1,1,262.65281200408936,None,0.8593118190765381,,,,,,,,,,,,,,,,,,,,,,,,,,1000,001,01,2021_Nov_02_1513,task-switching-replication,2021.2.3,60.004177384327946,
1,22,timed,01,standing,noswitch,congruant,dashed,triangle,yellow,stimuli/dashed-rectangle.png,stimuli/yellow-triangle.png,1,,,,,,,,,,,,,0,21,21,21,,,,,,,,,,,,,,,,,,,,,,,,,,,,,,,,,,,,,,,,,,,,,,,,,,,,,,,,,,,,,,,,,,,,,,,,,,,,,,,,,,,,,,,,,,,,266.026859998703,None,,,,,,,,,,,,,,,,,263.84385085105896,None,264.8272018432617,None,1,1,264.8272018432617,None,1.0791330337524414,,,,,,,,,,,,,,,,,,,,,,,,,,1000,001,01,2021_Nov_02_1513,task-switching-replication,2021.2.3,60.004177384327946,
1,23,timed,01,standing,noswitch,incongruant,dashed,square,blue,stimuli/dashed-rectangle.png,stimuli/blue-square.png,2,,,,,,,,,,,,,0,22,22,22,,,,,,,,,,,,,,,,,,,,,,,,,,,,,,,,,,,,,,,,,,,,,,,,,,,,,,,,,,,,,,,,,,,,,,,,,,,,,,,,,,,,,,,,,,,,268.1471138000488,None,,,,,,,,,,,,,,,,,266.25585293769836,None,267.24009799957275,None,2,1,267.24009799957275,None,0.7636909484863281,,,,,,,,,,,,,,,,,,,,,,,,,,1000,001,01,2021_Nov_02_1513,task-switching-replication,2021.2.3,60.004177384327946,
1,24,timed,01,standing,switch,incongruant,solid,square,blue,stimuli/solid-rectangle.png,stimuli/blue-square.png,1,,,,,,,,,,,,,0,23,23,23,0,0,0,0,,,,,,,,,,,,,,,,,,,,,,,,,,,,,,,,,,,,,,,,,,,,,,,,,,,,,,,,,,,,,,,,,,,,,,,,,,,,,,,,,,,,,,,,,,270.89501986503603,271.9459137916565,270.9261438846588,None,,,,,,,,,,,,,268.3764138221741,None,269.3593239784241,None,None,0,269.3593239784241,None,,,,,,,,,,,,,,,,,,,,,,,,,,,1000,001,01,2021_Nov_02_1513,task-switching-replication,2021.2.3,60.004177384327946,
1,24,timed,01,standing,switch,incongruant,solid,square,blue,stimuli/solid-rectangle.png,stimuli/blue-square.png,1,,,,,,,,,,,,,0,23,23,23,,,,,,,,,,,,,,,,,,,,,,,,,,,,,,,,,,,,,,,,,,,,,,,,,,,,,,,,,,,,,,,,,,,,,,,,,,,,,,,,,,,,,,,,,,,,275.9511549472809,None,,,,,,,,,,,,,,,,,,,,,,,,,,,,,,,,,,,,,,,,,,,,,,,,,,,1000,001,01,2021_Nov_02_1513,task-switching-replication,2021.2.3,60.004177384327946,
1,1,experiment,01,standing,buffer,buffer,solid,triangle,blue,stimuli/solid-rectangle.png,stimuli/blue-triangle.png,1,,,,,,,,,,,,,,,,,,,,,,,,,0,0,0,0,0,0,0,0,0,0,0,0,0,0,0,0,,,,,276.1623628139496,None,2,290.76038098335266,276.1623628139496,None,,,,,,,,,,,,,,,,,,,,,,,,,,,,,,,,,,,,,,,,,,,,,,,,,,,,,,,,,,,,581.4377168178557,582.4887700080872,581.4693369865417,None,,,,,,,,,,,,,,,,,,,,,,567.0103340148926,None,2,3.3944168090820312,567.0103340148926,None,570.5429239273071,None,1,8.203021049499512,570.5429239273071,None,578.916337966919,None,579.9014668464661,None,None,0,579.9014668464661,None,,,,,,1000,001,01,2021_Nov_02_1513,task-switching-replication,2021.2.3,60.004177384327946,
1,1,experiment,01,standing,buffer,buffer,solid,triangle,blue,stimuli/solid-rectangle.png,stimuli/blue-triangle.png,1,,,,,,,,,,,,,,,,,,,,,,,,,0,0,0,0,0,0,0,0,0,0,0,0,,,,,,,,,,,,,,,,,,,,,,,,,,,,,,,,,,,,,,,,,,,,,,,,,,,,,,,,,,,,,,,,,,,,,,,,586.469055891037,None,,,,,,,,,,,,,,,,,,,,,,,,,,,,,,,,,,,,,,,,,,,,,,,,,,,1000,001,01,2021_Nov_02_1513,task-switching-replication,2021.2.3,60.004177384327946,
1,2,experiment,01,standing,switch,congruant,dashed,triangle,blue,stimuli/dashed-rectangle.png,stimuli/blue-triangle.png,1,,,,,,,,,,,,,,,,,,,,,,,,,0,0,0,0,0,0,0,0,0,1,1,1,,,,,0,0,0,0,,,,,,,,,,,,,,,,,,,,,,,,,,,,,,,,,,,,,,,,,,,,,,,,,,,,,,,,,,,,,,,,,,,,,,,,,,,,,,,,,,,,,,,,,,,,,,,,,,,,,,,586.6982159614563,None,587.6828908920288,None,None,0,587.6828908920288,None,589.2183469295501,590.2360029220581,589.2501449584961,None,,1000,001,01,2021_Nov_02_1513,task-switching-replication,2021.2.3,60.004177384327946,
1,2,experiment,01,standing,switch,congruant,dashed,triangle,blue,stimuli/dashed-rectangle.png,stimuli/blue-triangle.png,1,,,,,,,,,,,,,,,,,,,,,,,,,0,0,0,0,0,0,0,0,0,1,1,1,,,,,,,,,,,,,,,,,,,,,,,,,,,,,,,,,,,,,,,,,,,,,,,,,,,,,,,,,,,,,,,,,,,,,,,,594.2765309810638,None,,,,,,,,,,,,,,,,,,,,,,,,,,,,,,,,,,,,,,,,,,,,,,,,,,,1000,001,01,2021_Nov_02_1513,task-switching-replication,2021.2.3,60.004177384327946,
1,3,experiment,01,standing,noswitch,congruant,dashed,triangle,yellow,stimuli/dashed-rectangle.png,stimuli/yellow-triangle.png,1,,,,,,,,,,,,,,,,,,,,,,,,,0,0,0,0,0,0,0,0,0,2,2,2,,,,,0,0,0,0,,,,,,,,,,,,,,,,,,,,,,,,,,,,,,,,,,,,,,,,,,,,,,,,,,,,,,,,,,,,,,,,,,,,,,,,,,,,,,,,,,,,,,,,,,,,,,,,,,,,,,,594.473042011261,None,595.4578778743744,None,None,0,595.4578778743744,None,596.9932738304137,598.0436308383942,597.0246939659119,None,,1000,001,01,2021_Nov_02_1513,task-switching-replication,2021.2.3,60.004177384327946,
1,3,experiment,01,standing,noswitch,congruant,dashed,triangle,yellow,stimuli/dashed-rectangle.png,stimuli/yellow-triangle.png,1,,,,,,,,,,,,,,,,,,,,,,,,,0,0,0,0,0,0,0,0,0,2,2,2,,,,,,,,,,,,,,,,,,,,,,,,,,,,,,,,,,,,,,,,,,,,,,,,,,,,,,,,,,,,,,,,,,,,,,,,602.0483148097992,None,,,,,,,,,,,,,,,,,,,,,,,,,,,,,,,,,,,,,,,,,,,,,,,,,,,1000,001,01,2021_Nov_02_1513,task-switching-replication,2021.2.3,60.004177384327946,
1,4,experiment,01,standing,noswitch,incongruant,dashed,square,blue,stimuli/dashed-rectangle.png,stimuli/blue-square.png,2,,,,,,,,,,,,,,,,,,,,,,,,,0,0,0,0,0,0,0,0,0,3,3,3,,,,,0,0,0,0,,,,,,,,,,,,,,,,,,,,,,,,,,,,,,,,,,,,,,,,,,,,,,,,,,,,,,,,,,,,,,,,,,,,,,,,,,,,,,,,,,,,,,,,,,,,,,,,,,,,,,,602.2447299957275,None,603.2282638549805,None,None,0,603.2282638549805,None,604.7629297733306,605.8138308525085,604.7945239543915,None,,1000,001,01,2021_Nov_02_1513,task-switching-replication,2021.2.3,60.004177384327946,
1,4,experiment,01,standing,noswitch,incongruant,dashed,square,blue,stimuli/dashed-rectangle.png,stimuli/blue-square.png,2,,,,,,,,,,,,,,,,,,,,,,,,,0,0,0,0,0,0,0,0,0,3,3,3,,,,,,,,,,,,,,,,,,,,,,,,,,,,,,,,,,,,,,,,,,,,,,,,,,,,,,,,,,,,,,,,,,,,,,,,609.8192768096924,None,,,,,,,,,,,,,,,,,,,,,,,,,,,,,,,,,,,,,,,,,,,,,,,,,,,1000,001,01,2021_Nov_02_1513,task-switching-replication,2021.2.3,60.004177384327946,
1,5,experiment,01,standing,noswitch,incongruant,dashed,triangle,blue,stimuli/dashed-rectangle.png,stimuli/blue-triangle.png,1,,,,,,,,,,,,,,,,,,,,,,,,,0,0,0,0,0,0,0,0,0,4,4,4,,,,,0,0,0,0,,,,,,,,,,,,,,,,,,,,,,,,,,,,,,,,,,,,,,,,,,,,,,,,,,,,,,,,,,,,,,,,,,,,,,,,,,,,,,,,,,,,,,,,,,,,,,,,,,,,,,,610.0164380073547,None,611.0012819766998,None,None,0,611.0012819766998,None,612.5364597797393,613.5872428417206,612.5680239200592,None,,1000,001,01,2021_Nov_02_1513,task-switching-replication,2021.2.3,60.004177384327946,
1,5,experiment,01,standing,noswitch,incongruant,dashed,triangle,blue,stimuli/dashed-rectangle.png,stimuli/blue-triangle.png,1,,,,,,,,,,,,,,,,,,,,,,,,,0,0,0,0,0,0,0,0,0,4,4,4,,,,,,,,,,,,,,,,,,,,,,,,,,,,,,,,,,,,,,,,,,,,,,,,,,,,,,,,,,,,,,,,,,,,,,,,617.5916719436646,None,,,,,,,,,,,,,,,,,,,,,,,,,,,,,,,,,,,,,,,,,,,,,,,,,,,1000,001,01,2021_Nov_02_1513,task-switching-replication,2021.2.3,60.004177384327946,
1,6,experiment,01,standing,switch,incongruant,solid,triangle,yellow,stimuli/solid-rectangle.png,stimuli/yellow-triangle.png,2,,,,,,,,,,,,,,,,,,,,,,,,,0,0,0,0,0,0,0,0,0,5,5,5,0,0,0,0,,,,,,,,,,,,,,,,,,,,,,,,,,,,,,,,,,,,,,,,,,,,,,,,,,,,,,,,,,,,,,,,,,,,,,620.3075967788695,621.358325958252,620.3386089801788,None,,,,,,,,,,,,,,,,,,,,,,,,,,,,,,,,,,617.7881150245667,None,618.7726888656616,None,None,0,618.7726888656616,None,,,,,,1000,001,01,2021_Nov_02_1513,task-switching-replication,2021.2.3,60.004177384327946,
1,6,experiment,01,standing,switch,incongruant,solid,triangle,yellow,stimuli/solid-rectangle.png,stimuli/yellow-triangle.png,2,,,,,,,,,,,,,,,,,,,,,,,,,0,0,0,0,0,0,0,0,0,5,5,5,,,,,,,,,,,,,,,,,,,,,,,,,,,,,,,,,,,,,,,,,,,,,,,,,,,,,,,,,,,,,,,,,,,,,,,,625.3630487918854,None,,,,,,,,,,,,,,,,,,,,,,,,,,,,,,,,,,,,,,,,,,,,,,,,,,,1000,001,01,2021_Nov_02_1513,task-switching-replication,2021.2.3,60.004177384327946,
1,7,experiment,01,standing,switch,congruant,dashed,square,blue,stimuli/dashed-rectangle.png,stimuli/blue-square.png,2,,,,,,,,,,,,,,,,,,,,,,,,,0,0,0,0,0,0,0,0,0,6,6,6,,,,,0,0,0,0,,,,,,,,,,,,,,,,,,,,,,,,,,,,,,,,,,,,,,,,,,,,,,,,,,,,,,,,,,,,,,,,,,,,,,,,,,,,,,,,,,,,,,,,,,,,,,,,,,,,,,,625.5596108436584,None,626.544490814209,None,None,0,626.544490814209,None,628.0788138866424,629.1285409927368,628.1101698875427,None,,1000,001,01,2021_Nov_02_1513,task-switching-replication,2021.2.3,60.004177384327946,
1,7,experiment,01,standing,switch,congruant,dashed,square,blue,stimuli/dashed-rectangle.png,stimuli/blue-square.png,2,,,,,,,,,,,,,,,,,,,,,,,,,0,0,0,0,0,0,0,0,0,6,6,6,,,,,,,,,,,,,,,,,,,,,,,,,,,,,,,,,,,,,,,,,,,,,,,,,,,,,,,,,,,,,,,,,,,,,,,,633.1295459270477,None,,,,,,,,,,,,,,,,,,,,,,,,,,,,,,,,,,,,,,,,,,,,,,,,,,,1000,001,01,2021_Nov_02_1513,task-switching-replication,2021.2.3,60.004177384327946,
1,8,experiment,01,standing,switch,incongruant,solid,triangle,blue,stimuli/solid-rectangle.png,stimuli/blue-triangle.png,1,,,,,,,,,,,,,,,,,,,,,,,,,0,0,0,0,0,0,0,0,0,7,7,7,,,,,,,,,,,,,,,,,,,,,,,,,,,,,,,,,,,,,,,,,,,,,,,,,,,,,,,,,,,,,,,,,,,,,,,,635.0418310165405,None,,,,,,,,,,,,,,,,,,,,,,,,,,,,,,,,,,,,,,633.3262000083923,None,634.3102350234985,None,1,1,634.3102350234985,None,,,,,0.6071557998657227,1000,001,01,2021_Nov_02_1513,task-switching-replication,2021.2.3,60.004177384327946,
1,9,experiment,01,standing,noswitch,congruant,solid,square,blue,stimuli/solid-rectangle.png,stimuli/blue-square.png,1,,,,,,,,,,,,,,,,,,,,,,,,,0,0,0,0,0,0,0,0,0,8,8,8,,,,,,,,,,,,,,,,,,,,,,,,,,,,,,,,,,,,,,,,,,,,,,,,,,,,,,,,,,,,,,,,,,,,,,,,637.0425298213959,None,,,,,,,,,,,,,,,,,,,,,,,,,,,,,,,,,,,,,,635.2706439495087,None,636.2554988861084,None,1,1,636.2554988861084,None,,,,,0.6518890857696533,1000,001,01,2021_Nov_02_1513,task-switching-replication,2021.2.3,60.004177384327946,
1,10,experiment,01,standing,switch,congruant,dashed,triangle,blue,stimuli/dashed-rectangle.png,stimuli/blue-triangle.png,1,,,,,,,,,,,,,,,,,,,,,,,,,0,0,0,0,0,0,0,0,0,9,9,9,,,,,0,0,0,0,,,,,,,,,,,,,,,,,,,,,,,,,,,,,,,,,,,,,,,,,,,,,,,,,,,,,,,,,,,,,,,,,,,,,,,,,,,,,,,,,,,,,,,,,,,,,,,,,,,,,,,637.2710988521576,None,638.2566139698029,None,None,0,638.2566139698029,None,639.7911590099334,640.841579914093,639.8230109214783,None,,1000,001,01,2021_Nov_02_1513,task-switching-replication,2021.2.3,60.004177384327946,
1,10,experiment,01,standing,switch,congruant,dashed,triangle,blue,stimuli/dashed-rectangle.png,stimuli/blue-triangle.png,1,,,,,,,,,,,,,,,,,,,,,,,,,0,0,0,0,0,0,0,0,0,9,9,9,,,,,,,,,,,,,,,,,,,,,,,,,,,,,,,,,,,,,,,,,,,,,,,,,,,,,,,,,,,,,,,,,,,,,,,,644.8481419086456,None,,,,,,,,,,,,,,,,,,,,,,,,,,,,,,,,,,,,,,,,,,,,,,,,,,,1000,001,01,2021_Nov_02_1513,task-switching-replication,2021.2.3,60.004177384327946,
1,11,experiment,01,standing,switch,incongruant,solid,square,yellow,stimuli/solid-rectangle.png,stimuli/yellow-square.png,2,,,,,,,,,,,,,,,,,,,,,,,,,0,0,0,0,0,0,0,0,0,10,10,10,0,0,0,0,,,,,,,,,,,,,,,,,,,,,,,,,,,,,,,,,,,,,,,,,,,,,,,,,,,,,,,,,,,,,,,,,,,,,,647.5568518638611,648.5745878219604,647.5901498794556,None,,,,,,,,,,,,,,,,,,,,,,,,,,,,,,,,,,645.0452020168304,None,646.0301899909973,None,1,0,646.0301899909973,None,,,,,1.403092861175537,1000,001,01,2021_Nov_02_1513,task-switching-replication,2021.2.3,60.004177384327946,
1,11,experiment,01,standing,switch,incongruant,solid,square,yellow,stimuli/solid-rectangle.png,stimuli/yellow-square.png,2,,,,,,,,,,,,,,,,,,,,,,,,,0,0,0,0,0,0,0,0,0,10,10,10,,,,,,,,,,,,,,,,,,,,,,,,,,,,,,,,,,,,,,,,,,,,,,,,,,,,,,,,,,,,,,,,,,,,,,,,652.6144609451294,None,,,,,,,,,,,,,,,,,,,,,,,,,,,,,,,,,,,,,,,,,,,,,,,,,,,1000,001,01,2021_Nov_02_1513,task-switching-replication,2021.2.3,60.004177384327946,
1,12,experiment,01,standing,noswitch,congruant,solid,triangle,yellow,stimuli/solid-rectangle.png,stimuli/yellow-triangle.png,2,,,,,,,,,,,,,,,,,,,,,,,,,0,0,0,0,0,0,0,0,0,11,11,11,,,,,,,,,,,,,,,,,,,,,,,,,,,,,,,,,,,,,,,,,,,,,,,,,,,,,,,,,,,,,,,,,,,,,,,,654.5231258869171,None,,,,,,,,,,,,,,,,,,,,,,,,,,,,,,,,,,,,,,652.8107149600983,None,653.7955718040466,None,2,1,653.7955718040466,None,,,,,0.611224889755249,1000,001,01,2021_Nov_02_1513,task-switching-replication,2021.2.3,60.004177384327946,
1,13,experiment,01,standing,switch,congruant,dashed,square,yellow,stimuli/dashed-rectangle.png,stimuli/yellow-square.png,2,,,,,,,,,,,,,,,,,,,,,,,,,0,0,0,0,0,0,0,0,0,12,12,12,,,,,,,,,,,,,,,,,,,,,,,,,,,,,,,,,,,,,,,,,,,,,,,,,,,,,,,,,,,,,,,,,,,,,,,,656.8770229816437,None,,,,,,,,,,,,,,,,,,,,,,,,,,,,,,,,,,,,,,654.7519268989563,None,655.7355999946594,None,2,1,655.7355999946594,None,,,,,1.0377869606018066,1000,001,01,2021_Nov_02_1513,task-switching-replication,2021.2.3,60.004177384327946,
1,14,experiment,01,standing,switch,incongruant,solid,square,blue,stimuli/solid-rectangle.png,stimuli/blue-square.png,1,,,,,,,,,,,,,,,,,,,,,,,,,0,0,0,0,0,0,0,0,0,13,13,13,0,0,0,0,,,,,,,,,,,,,,,,,,,,,,,,,,,,,,,,,,,,,,,,,,,,,,,,,,,,,,,,,,,,,,,,,,,,,,659.2630779743195,660.2808878421783,659.2960078716278,None,,,,,,,,,,,,,,,,,,,,,,,,,,,,,,,,,,657.1060199737549,None,658.0906980037689,None,2,0,658.0906980037689,None,,,,,1.0955889225006104,1000,001,01,2021_Nov_02_1513,task-switching-replication,2021.2.3,60.004177384327946,
1,14,experiment,01,standing,switch,incongruant,solid,square,blue,stimuli/solid-rectangle.png,stimuli/blue-square.png,1,,,,,,,,,,,,,,,,,,,,,,,,,0,0,0,0,0,0,0,0,0,13,13,13,,,,,,,,,,,,,,,,,,,,,,,,,,,,,,,,,,,,,,,,,,,,,,,,,,,,,,,,,,,,,,,,,,,,,,,,664.322527885437,None,,,,,,,,,,,,,,,,,,,,,,,,,,,,,,,,,,,,,,,,,,,,,,,,,,,1000,001,01,2021_Nov_02_1513,task-switching-replication,2021.2.3,60.004177384327946,
1,15,experiment,01,standing,switch,congruant,dashed,triangle,blue,stimuli/dashed-rectangle.png,stimuli/blue-triangle.png,1,,,,,,,,,,,,,,,,,,,,,,,,,0,0,0,0,0,0,0,0,0,14,14,14,,,,,0,0,0,0,,,,,,,,,,,,,,,,,,,,,,,,,,,,,,,,,,,,,,,,,,,,,,,,,,,,,,,,,,,,,,,,,,,,,,,,,,,,,,,,,,,,,,,,,,,,,,,,,,,,,,,664.5189008712769,None,665.5021569728851,None,None,0,665.5021569728851,None,667.0373619556426,668.0876297950745,667.0687668323517,None,,1000,001,01,2021_Nov_02_1513,task-switching-replication,2021.2.3,60.004177384327946,
1,15,experiment,01,standing,switch,congruant,dashed,triangle,blue,stimuli/dashed-rectangle.png,stimuli/blue-triangle.png,1,,,,,,,,,,,,,,,,,,,,,,,,,0,0,0,0,0,0,0,0,0,14,14,14,,,,,,,,,,,,,,,,,,,,,,,,,,,,,,,,,,,,,,,,,,,,,,,,,,,,,,,,,,,,,,,,,,,,,,,,672.0931580066681,None,,,,,,,,,,,,,,,,,,,,,,,,,,,,,,,,,,,,,,,,,,,,,,,,,,,1000,001,01,2021_Nov_02_1513,task-switching-replication,2021.2.3,60.004177384327946,
1,16,experiment,01,standing,noswitch,incongruant,dashed,square,yellow,stimuli/dashed-rectangle.png,stimuli/yellow-square.png,2,,,,,,,,,,,,,,,,,,,,,,,,,0,0,0,0,0,0,0,0,0,15,15,15,,,,,0,0,0,0,,,,,,,,,,,,,,,,,,,,,,,,,,,,,,,,,,,,,,,,,,,,,,,,,,,,,,,,,,,,,,,,,,,,,,,,,,,,,,,,,,,,,,,,,,,,,,,,,,,,,,,672.2893810272217,None,673.2726008892059,None,None,0,673.2726008892059,None,674.806669807434,675.8563358783722,674.8381609916687,None,,1000,001,01,2021_Nov_02_1513,task-switching-replication,2021.2.3,60.004177384327946,
1,16,experiment,01,standing,noswitch,incongruant,dashed,square,yellow,stimuli/dashed-rectangle.png,stimuli/yellow-square.png,2,,,,,,,,,,,,,,,,,,,,,,,,,0,0,0,0,0,0,0,0,0,15,15,15,,,,,,,,,,,,,,,,,,,,,,,,,,,,,,,,,,,,,,,,,,,,,,,,,,,,,,,,,,,,,,,,,,,,,,,,679.8616099357605,None,,,,,,,,,,,,,,,,,,,,,,,,,,,,,,,,,,,,,,,,,,,,,,,,,,,1000,001,01,2021_Nov_02_1513,task-switching-replication,2021.2.3,60.004177384327946,
1,17,experiment,01,standing,switch,incongruant,solid,square,blue,stimuli/solid-rectangle.png,stimuli/blue-square.png,1,,,,,,,,,,,,,,,,,,,,,,,,,0,0,0,0,0,0,0,0,0,16,16,16,0,0,0,0,,,,,,,,,,,,,,,,,,,,,,,,,,,,,,,,,,,,,,,,,,,,,,,,,,,,,,,,,,,,,,,,,,,,,,682.5790678024291,683.6298089027405,682.6102268695831,None,,,,,,,,,,,,,,,,,,,,,,,,,,,,,,,,,,680.058317899704,None,681.0431859493256,None,None,0,681.0431859493256,None,,,,,,1000,001,01,2021_Nov_02_1513,task-switching-replication,2021.2.3,60.004177384327946,
1,17,experiment,01,standing,switch,incongruant,solid,square,blue,stimuli/solid-rectangle.png,stimuli/blue-square.png,1,,,,,,,,,,,,,,,,,,,,,,,,,0,0,0,0,0,0,0,0,0,16,16,16,,,,,,,,,,,,,,,,,,,,,,,,,,,,,,,,,,,,,,,,,,,,,,,,,,,,,,,,,,,,,,,,,,,,,,,,687.6365418434143,None,,,,,,,,,,,,,,,,,,,,,,,,,,,,,,,,,,,,,,,,,,,,,,,,,,,1000,001,01,2021_Nov_02_1513,task-switching-replication,2021.2.3,60.004177384327946,
1,18,experiment,01,standing,noswitch,congruant,solid,triangle,blue,stimuli/solid-rectangle.png,stimuli/blue-triangle.png,1,,,,,,,,,,,,,,,,,,,,,,,,,0,0,0,0,0,0,0,0,0,17,17,17,0,0,0,0,,,,,,,,,,,,,,,,,,,,,,,,,,,,,,,,,,,,,,,,,,,,,,,,,,,,,,,,,,,,,,,,,,,,,,690.3548508644103,691.4056458473206,690.3861229419708,None,,,,,,,,,,,,,,,,,,,,,,,,,,,,,,,,,,687.8334968090057,None,688.8182368278503,None,None,0,688.8182368278503,None,,,,,,1000,001,01,2021_Nov_02_1513,task-switching-replication,2021.2.3,60.004177384327946,
1,18,experiment,01,standing,noswitch,congruant,solid,triangle,blue,stimuli/solid-rectangle.png,stimuli/blue-triangle.png,1,,,,,,,,,,,,,,,,,,,,,,,,,0,0,0,0,0,0,0,0,0,17,17,17,,,,,,,,,,,,,,,,,,,,,,,,,,,,,,,,,,,,,,,,,,,,,,,,,,,,,,,,,,,,,,,,,,,,,,,,695.4105539321899,None,,,,,,,,,,,,,,,,,,,,,,,,,,,,,,,,,,,,,,,,,,,,,,,,,,,1000,001,01,2021_Nov_02_1513,task-switching-replication,2021.2.3,60.004177384327946,
1,19,experiment,01,standing,switch,incongruant,dashed,square,blue,stimuli/dashed-rectangle.png,stimuli/blue-square.png,2,,,,,,,,,,,,,,,,,,,,,,,,,0,0,0,0,0,0,0,0,0,18,18,18,,,,,,,,,,,,,,,,,,,,,,,,,,,,,,,,,,,,,,,,,,,,,,,,,,,,,,,,,,,,,,,,,,,,,,,,698.0291278362274,None,,,,,,,,,,,,,,,,,,,,,,,,,,,,,,,,,,,,,,695.6071670055389,None,696.5915579795837,None,2,1,696.5915579795837,None,,,,,1.3225898742675781,1000,001,01,2021_Nov_02_1513,task-switching-replication,2021.2.3,60.004177384327946,
1,20,experiment,01,standing,noswitch,congruant,dashed,square,yellow,stimuli/dashed-rectangle.png,stimuli/yellow-square.png,2,,,,,,,,,,,,,,,,,,,,,,,,,0,0,0,0,0,0,0,0,0,19,19,19,,,,,,,,,,,,,,,,,,,,,,,,,,,,,,,,,,,,,,,,,,,,,,,,,,,,,,,,,,,,,,,,,,,,,,,,699.85111784935,None,,,,,,,,,,,,,,,,,,,,,,,,,,,,,,,,,,,,,,698.2581088542938,None,699.2415509223938,None,2,1,699.2415509223938,None,,,,,0.47765493392944336,1000,001,01,2021_Nov_02_1513,task-switching-replication,2021.2.3,60.004177384327946,
1,21,experiment,01,standing,switch,incongruant,solid,triangle,blue,stimuli/solid-rectangle.png,stimuli/blue-triangle.png,1,,,,,,,,,,,,,,,,,,,,,,,,,0,0,0,0,0,0,0,0,0,20,20,20,0,0,0,0,,,,,,,,,,,,,,,,,,,,,,,,,,,,,,,,,,,,,,,,,,,,,,,,,,,,,,,,,,,,,,,,,,,,,,702.2945668697357,703.3121190071106,702.3274848461151,None,,,,,,,,,,,,,,,,,,,,,,,,,,,,,,,,,,700.0798490047455,None,701.0642628669739,None,2,0,701.0642628669739,None,,,,,1.163849115371704,1000,001,01,2021_Nov_02_1513,task-switching-replication,2021.2.3,60.004177384327946,
1,21,experiment,01,standing,switch,incongruant,solid,triangle,blue,stimuli/solid-rectangle.png,stimuli/blue-triangle.png,1,,,,,,,,,,,,,,,,,,,,,,,,,0,0,0,0,0,0,0,0,0,20,20,20,,,,,,,,,,,,,,,,,,,,,,,,,,,,,,,,,,,,,,,,,,,,,,,,,,,,,,,,,,,,,,,,,,,,,,,,707.3517429828644,None,,,,,,,,,,,,,,,,,,,,,,,,,,,,,,,,,,,,,,,,,,,,,,,,,,,1000,001,01,2021_Nov_02_1513,task-switching-replication,2021.2.3,60.004177384327946,
1,22,experiment,01,standing,switch,congruant,dashed,triangle,yellow,stimuli/dashed-rectangle.png,stimuli/yellow-triangle.png,1,,,,,,,,,,,,,,,,,,,,,,,,,0,0,0,0,0,0,0,0,0,21,21,21,,,,,,,,,,,,,,,,,,,,,,,,,,,,,,,,,,,,,,,,,,,,,,,,,,,,,,,,,,,,,,,,,,,,,,,,709.6757638454437,None,,,,,,,,,,,,,,,,,,,,,,,,,,,,,,,,,,,,,,707.5488209724426,None,708.534343957901,None,1,1,708.534343957901,None,,,,,1.0488839149475098,1000,001,01,2021_Nov_02_1513,task-switching-replication,2021.2.3,60.004177384327946,
1,23,experiment,01,standing,switch,incongruant,solid,square,yellow,stimuli/solid-rectangle.png,stimuli/yellow-square.png,2,,,,,,,,,,,,,,,,,,,,,,,,,0,0,0,0,0,0,0,0,0,22,22,22,,,,,,,,,,,,,,,,,,,,,,,,,,,,,,,,,,,,,,,,,,,,,,,,,,,,,,,,,,,,,,,,,,,,,,,,712.2083609104156,None,,,,,,,,,,,,,,,,,,,,,,,,,,,,,,,,,,,,,,709.9047849178314,None,710.8899509906769,None,2,1,710.8899509906769,None,,,,,1.2003200054168701,1000,001,01,2021_Nov_02_1513,task-switching-replication,2021.2.3,60.004177384327946,
1,24,experiment,01,standing,noswitch,congruant,solid,square,yellow,stimuli/solid-rectangle.png,stimuli/yellow-square.png,2,,,,,,,,,,,,,,,,,,,,,,,,,0,0,0,0,0,0,0,0,0,23,23,23,,,,,,,,,,,,,,,,,,,,,,,,,,,,,,,,,,,,,,,,,,,,,,,,,,,,,,,,,,,,,,,,,,,,,,,,714.26731300354,None,,,,,,,,,,,,,,,,,,,,,,,,,,,,,,,,,,,,,,712.4375,None,713.421972990036,None,2,1,713.421972990036,None,,,,,0.7251360416412354,1000,001,01,2021_Nov_02_1513,task-switching-replication,2021.2.3,60.004177384327946,
1,25,experiment,01,standing,noswitch,congruant,solid,square,yellow,stimuli/solid-rectangle.png,stimuli/yellow-square.png,2,,,,,,,,,,,,,,,,,,,,,,,,,0,0,0,0,0,0,0,0,0,24,24,24,,,,,,,,,,,,,,,,,,,,,,,,,,,,,,,,,,,,,,,,,,,,,,,,,,,,,,,,,,,,,,,,,,,,,,,,715.9730498790741,None,,,,,,,,,,,,,,,,,,,,,,,,,,,,,,,,,,,,,,714.496081829071,None,715.4806768894196,None,2,1,715.4806768894196,None,,,,,0.396481990814209,1000,001,01,2021_Nov_02_1513,task-switching-replication,2021.2.3,60.004177384327946,
1,26,experiment,01,standing,noswitch,incongruant,solid,square,blue,stimuli/solid-rectangle.png,stimuli/blue-square.png,1,,,,,,,,,,,,,,,,,,,,,,,,,0,0,0,0,0,0,0,0,0,25,25,25,,,,,,,,,,,,,,,,,,,,,,,,,,,,,,,,,,,,,,,,,,,,,,,,,,,,,,,,,,,,,,,,,,,,,,,,718.3864707946777,None,,,,,,,,,,,,,,,,,,,,,,,,,,,,,,,,,,,,,,716.2020227909088,None,717.1866369247437,None,1,1,717.1866369247437,None,,,,,1.0883269309997559,1000,001,01,2021_Nov_02_1513,task-switching-replication,2021.2.3,60.004177384327946,
1,27,experiment,01,standing,switch,congruant,dashed,triangle,yellow,stimuli/dashed-rectangle.png,stimuli/yellow-triangle.png,1,,,,,,,,,,,,,,,,,,,,,,,,,0,0,0,0,0,0,0,0,0,26,26,26,,,,,,,,,,,,,,,,,,,,,,,,,,,,,,,,,,,,,,,,,,,,,,,,,,,,,,,,,,,,,,,,,,,,,,,,720.8606629371643,None,,,,,,,,,,,,,,,,,,,,,,,,,,,,,,,,,,,,,,718.6154329776764,None,719.6006219387054,None,1,1,719.6006219387054,None,,,,,1.1283481121063232,1000,001,01,2021_Nov_02_1513,task-switching-replication,2021.2.3,60.004177384327946,
1,28,experiment,01,standing,switch,incongruant,solid,triangle,yellow,stimuli/solid-rectangle.png,stimuli/yellow-triangle.png,2,,,,,,,,,,,,,,,,,,,,,,,,,0,0,0,0,0,0,0,0,0,27,27,27,,,,,,,,,,,,,,,,,,,,,,,,,,,,,,,,,,,,,,,,,,,,,,,,,,,,,,,,,,,,,,,,,,,,,,,,723.0396540164948,None,,,,,,,,,,,,,,,,,,,,,,,,,,,,,,,,,,,,,,721.0894329547882,None,722.0744609832764,None,2,1,722.0744609832764,None,,,,,0.8490629196166992,1000,001,01,2021_Nov_02_1513,task-switching-replication,2021.2.3,60.004177384327946,
1,29,experiment,01,standing,noswitch,congruant,solid,triangle,yellow,stimuli/solid-rectangle.png,stimuli/yellow-triangle.png,2,,,,,,,,,,,,,,,,,,,,,,,,,0,0,0,0,0,0,0,0,0,28,28,28,0,0,0,0,,,,,,,,,,,,,,,,,,,,,,,,,,,,,,,,,,,,,,,,,,,,,,,,,,,,,,,,,,,,,,,,,,,,,,725.7887757778167,726.8098268508911,725.82009100914,None,,,,,,,,,,,,,,,,,,,,,,,,,,,,,,,,,,723.2685449123383,None,724.2531678676605,None,None,0,724.2531678676605,None,,,,,,1000,001,01,2021_Nov_02_1513,task-switching-replication,2021.2.3,60.004177384327946,
1,29,experiment,01,standing,noswitch,congruant,solid,triangle,yellow,stimuli/solid-rectangle.png,stimuli/yellow-triangle.png,2,,,,,,,,,,,,,,,,,,,,,,,,,0,0,0,0,0,0,0,0,0,28,28,28,,,,,,,,,,,,,,,,,,,,,,,,,,,,,,,,,,,,,,,,,,,,,,,,,,,,,,,,,,,,,,,,,,,,,,,,730.84503698349,None,,,,,,,,,,,,,,,,,,,,,,,,,,,,,,,,,,,,,,,,,,,,,,,,,,,1000,001,01,2021_Nov_02_1513,task-switching-replication,2021.2.3,60.004177384327946,
1,30,experiment,01,standing,switch,incongruant,dashed,triangle,yellow,stimuli/dashed-rectangle.png,stimuli/yellow-triangle.png,1,,,,,,,,,,,,,,,,,,,,,,,,,0,0,0,0,0,0,0,0,0,29,29,29,,,,,,,,,,,,,,,,,,,,,,,,,,,,,,,,,,,,,,,,,,,,,,,,,,,,,,,,,,,,,,,,,,,,,,,,732.9292619228363,None,,,,,,,,,,,,,,,,,,,,,,,,,,,,,,,,,,,,,,731.0411999225616,None,732.02494597435,None,1,1,732.02494597435,None,,,,,0.7839758396148682,1000,001,01,2021_Nov_02_1513,task-switching-replication,2021.2.3,60.004177384327946,
1,31,experiment,01,standing,noswitch,congruant,dashed,triangle,yellow,stimuli/dashed-rectangle.png,stimuli/yellow-triangle.png,1,,,,,,,,,,,,,,,,,,,,,,,,,0,0,0,0,0,0,0,0,0,30,30,30,,,,,,,,,,,,,,,,,,,,,,,,,,,,,,,,,,,,,,,,,,,,,,,,,,,,,,,,,,,,,,,,,,,,,,,,734.6936268806458,None,,,,,,,,,,,,,,,,,,,,,,,,,,,,,,,,,,,,,,733.1578028202057,None,734.1426458358765,None,1,1,734.1426458358765,None,,,,,0.42522311210632324,1000,001,01,2021_Nov_02_1513,task-switching-replication,2021.2.3,60.004177384327946,
1,32,experiment,01,standing,switch,congruant,solid,triangle,blue,stimuli/solid-rectangle.png,stimuli/blue-triangle.png,1,,,,,,,,,,,,,,,,,,,,,,,,,0,0,0,0,0,0,0,0,0,31,31,31,,,,,,,,,,,,,,,,,,,,,,,,,,,,,,,,,,,,,,,,,,,,,,,,,,,,,,,,,,,,,,,,,,,,,,,,737.2238128185272,None,,,,,,,,,,,,,,,,,,,,,,,,,,,,,,,,,,,,,,734.9224798679352,None,735.9063019752502,None,1,1,735.9063019752502,None,,,,,1.2135748863220215,1000,001,01,2021_Nov_02_1513,task-switching-replication,2021.2.3,60.004177384327946,
1,33,experiment,01,standing,noswitch,incongruant,solid,square,yellow,stimuli/solid-rectangle.png,stimuli/yellow-square.png,2,,,,,,,,,,,,,,,,,,,,,,,,,0,0,0,0,0,0,0,0,0,32,32,32,,,,,,,,,,,,,,,,,,,,,,,,,,,,,,,,,,,,,,,,,,,,,,,,,,,,,,,,,,,,,,,,,,,,,,,,739.5804688930511,None,,,,,,,,,,,,,,,,,,,,,,,,,,,,,,,,,,,,,,737.4528479576111,None,738.4378938674927,None,2,1,738.4378938674927,None,,,,,0.9941110610961914,1000,001,01,2021_Nov_02_1513,task-switching-replication,2021.2.3,60.004177384327946,
1,34,experiment,01,standing,switch,incongruant,dashed,triangle,blue,stimuli/dashed-rectangle.png,stimuli/blue-triangle.png,1,,,,,,,,,,,,,,,,,,,,,,,,,0,0,0,0,0,0,0,0,0,33,33,33,,,,,0,0,0,0,,,,,,,,,,,,,,,,,,,,,,,,,,,,,,,,,,,,,,,,,,,,,,,,,,,,,,,,,,,,,,,,,,,,,,,,,,,,,,,,,,,,,,,,,,,,,,,,,,,,,,,739.8099799156189,None,740.7950749397278,None,None,0,740.7950749397278,None,742.3310888767242,743.3833479881287,742.3627238273621,None,,1000,001,01,2021_Nov_02_1513,task-switching-replication,2021.2.3,60.004177384327946,
1,34,experiment,01,standing,switch,incongruant,dashed,triangle,blue,stimuli/dashed-rectangle.png,stimuli/blue-triangle.png,1,,,,,,,,,,,,,,,,,,,,,,,,,0,0,0,0,0,0,0,0,0,33,33,33,,,,,,,,,,,,,,,,,,,,,,,,,,,,,,,,,,,,,,,,,,,,,,,,,,,,,,,,,,,,,,,,,,,,,,,,747.3881850242615,None,,,,,,,,,,,,,,,,,,,,,,,,,,,,,,,,,,,,,,,,,,,,,,,,,,,1000,001,01,2021_Nov_02_1513,task-switching-replication,2021.2.3,60.004177384327946,
1,35,experiment,01,standing,noswitch,incongruant,dashed,square,yellow,stimuli/dashed-rectangle.png,stimuli/yellow-square.png,2,,,,,,,,,,,,,,,,,,,,,,,,,0,0,0,0,0,0,0,0,0,34,34,34,,,,,0,0,0,0,,,,,,,,,,,,,,,,,,,,,,,,,,,,,,,,,,,,,,,,,,,,,,,,,,,,,,,,,,,,,,,,,,,,,,,,,,,,,,,,,,,,,,,,,,,,,,,,,,,,,,,747.5849969387054,None,748.5701608657837,None,None,0,748.5701608657837,None,750.1052638053893,751.1574997901917,750.1366670131683,None,,1000,001,01,2021_Nov_02_1513,task-switching-replication,2021.2.3,60.004177384327946,
1,35,experiment,01,standing,noswitch,incongruant,dashed,square,yellow,stimuli/dashed-rectangle.png,stimuli/yellow-square.png,2,,,,,,,,,,,,,,,,,,,,,,,,,0,0,0,0,0,0,0,0,0,34,34,34,,,,,,,,,,,,,,,,,,,,,,,,,,,,,,,,,,,,,,,,,,,,,,,,,,,,,,,,,,,,,,,,,,,,,,,,755.162966966629,None,,,,,,,,,,,,,,,,,,,,,,,,,,,,,,,,,,,,,,,,,,,,,,,,,,,1000,001,01,2021_Nov_02_1513,task-switching-replication,2021.2.3,60.004177384327946,
1,36,experiment,01,standing,switch,incongruant,solid,triangle,blue,stimuli/solid-rectangle.png,stimuli/blue-triangle.png,1,,,,,,,,,,,,,,,,,,,,,,,,,0,0,0,0,0,0,0,0,0,35,35,35,0,0,0,0,,,,,,,,,,,,,,,,,,,,,,,,,,,,,,,,,,,,,,,,,,,,,,,,,,,,,,,,,,,,,,,,,,,,,,757.2806389331818,758.3330338001251,757.3134989738464,None,,,,,,,,,,,,,,,,,,,,,,,,,,,,,,,,,,755.359531879425,None,756.3442158699036,None,2,0,756.3442158699036,None,,,,,0.8186159133911133,1000,001,01,2021_Nov_02_1513,task-switching-replication,2021.2.3,60.004177384327946,
1,36,experiment,01,standing,switch,incongruant,solid,triangle,blue,stimuli/solid-rectangle.png,stimuli/blue-triangle.png,1,,,,,,,,,,,,,,,,,,,,,,,,,0,0,0,0,0,0,0,0,0,35,35,35,,,,,,,,,,,,,,,,,,,,,,,,,,,,,,,,,,,,,,,,,,,,,,,,,,,,,,,,,,,,,,,,,,,,,,,,762.3383078575134,None,,,,,,,,,,,,,,,,,,,,,,,,,,,,,,,,,,,,,,,,,,,,,,,,,,,1000,001,01,2021_Nov_02_1513,task-switching-replication,2021.2.3,60.004177384327946,
1,37,experiment,01,standing,switch,congruant,dashed,triangle,blue,stimuli/dashed-rectangle.png,stimuli/blue-triangle.png,1,,,,,,,,,,,,,,,,,,,,,,,,,0,0,0,0,0,0,0,0,0,36,36,36,,,,,,,,,,,,,,,,,,,,,,,,,,,,,,,,,,,,,,,,,,,,,,,,,,,,,,,,,,,,,,,,,,,,,,,,764.1340517997742,None,,,,,,,,,,,,,,,,,,,,,,,,,,,,,,,,,,,,,,762.5350079536438,None,763.519740819931,None,1,1,763.519740819931,None,,,,,0.4899420738220215,1000,001,01,2021_Nov_02_1513,task-switching-replication,2021.2.3,60.004177384327946,
1,38,experiment,01,standing,noswitch,incongruant,dashed,square,yellow,stimuli/dashed-rectangle.png,stimuli/yellow-square.png,2,,,,,,,,,,,,,,,,,,,,,,,,,0,0,0,0,0,0,0,0,0,37,37,37,,,,,,,,,,,,,,,,,,,,,,,,,,,,,,,,,,,,,,,,,,,,,,,,,,,,,,,,,,,,,,,,,,,,,,,,765.9558799266815,None,,,,,,,,,,,,,,,,,,,,,,,,,,,,,,,,,,,,,,764.36314702034,None,765.3467190265656,None,2,1,765.3467190265656,None,,,,,0.49124884605407715,1000,001,01,2021_Nov_02_1513,task-switching-replication,2021.2.3,60.004177384327946,
1,39,experiment,01,standing,noswitch,congruant,dashed,square,blue,stimuli/dashed-rectangle.png,stimuli/blue-square.png,2,,,,,,,,,,,,,,,,,,,,,,,,,0,0,0,0,0,0,0,0,0,38,38,38,,,,,,,,,,,,,,,,,,,,,,,,,,,,,,,,,,,,,,,,,,,,,,,,,,,,,,,,,,,,,,,,,,,,,,,,768.0143048763275,None,,,,,,,,,,,,,,,,,,,,,,,,,,,,,,,,,,,,,,766.1847488880157,None,767.1680619716644,None,2,1,767.1680619716644,None,,,,,0.7038419246673584,1000,001,01,2021_Nov_02_1513,task-switching-replication,2021.2.3,60.004177384327946,
1,40,experiment,01,standing,noswitch,congruant,dashed,square,blue,stimuli/dashed-rectangle.png,stimuli/blue-square.png,2,,,,,,,,,,,,,,,,,,,,,,,,,0,0,0,0,0,0,0,0,0,39,39,39,,,,,,,,,,,,,,,,,,,,,,,,,,,,,,,,,,,,,,,,,,,,,,,,,,,,,,,,,,,,,,,,,,,,,,,,769.955897808075,None,,,,,,,,,,,,,,,,,,,,,,,,,,,,,,,,,,,,,,768.2433488368988,None,769.2279598712921,None,2,1,769.2279598712921,None,,,,,0.5827560424804688,1000,001,01,2021_Nov_02_1513,task-switching-replication,2021.2.3,60.004177384327946,
1,41,experiment,01,standing,noswitch,congruant,dashed,square,yellow,stimuli/dashed-rectangle.png,stimuli/yellow-square.png,2,,,,,,,,,,,,,,,,,,,,,,,,,0,0,0,0,0,0,0,0,0,40,40,40,,,,,,,,,,,,,,,,,,,,,,,,,,,,,,,,,,,,,,,,,,,,,,,,,,,,,,,,,,,,,,,,,,,,,,,,771.9575319290161,None,,,,,,,,,,,,,,,,,,,,,,,,,,,,,,,,,,,,,,770.1848559379578,None,771.1699090003967,None,2,1,771.1699090003967,None,,,,,0.6438148021697998,1000,001,01,2021_Nov_02_1513,task-switching-replication,2021.2.3,60.004177384327946,
1,42,experiment,01,standing,switch,congruant,solid,triangle,yellow,stimuli/solid-rectangle.png,stimuli/yellow-triangle.png,2,,,,,,,,,,,,,,,,,,,,,,,,,0,0,0,0,0,0,0,0,0,41,41,41,0,0,0,0,,,,,,,,,,,,,,,,,,,,,,,,,,,,,,,,,,,,,,,,,,,,,,,,,,,,,,,,,,,,,,,,,,,,,,774.704864835739,775.7257418632507,774.7359659671783,None,,,,,,,,,,,,,,,,,,,,,,,,,,,,,,,,,,772.1858539581299,None,773.1694159507751,None,None,0,773.1694159507751,None,,,,,,1000,001,01,2021_Nov_02_1513,task-switching-replication,2021.2.3,60.004177384327946,
1,42,experiment,01,standing,switch,congruant,solid,triangle,yellow,stimuli/solid-rectangle.png,stimuli/yellow-triangle.png,2,,,,,,,,,,,,,,,,,,,,,,,,,0,0,0,0,0,0,0,0,0,41,41,41,,,,,,,,,,,,,,,,,,,,,,,,,,,,,,,,,,,,,,,,,,,,,,,,,,,,,,,,,,,,,,,,,,,,,,,,779.7648358345032,None,,,,,,,,,,,,,,,,,,,,,,,,,,,,,,,,,,,,,,,,,,,,,,,,,,,1000,001,01,2021_Nov_02_1513,task-switching-replication,2021.2.3,60.004177384327946,
1,43,experiment,01,standing,noswitch,congruant,solid,triangle,yellow,stimuli/solid-rectangle.png,stimuli/yellow-triangle.png,2,,,,,,,,,,,,,,,,,,,,,,,,,0,0,0,0,0,0,0,0,0,42,42,42,,,,,,,,,,,,,,,,,,,,,,,,,,,,,,,,,,,,,,,,,,,,,,,,,,,,,,,,,,,,,,,,,,,,,,,,781.9727838039398,None,,,,,,,,,,,,,,,,,,,,,,,,,,,,,,,,,,,,,,779.9641799926758,None,780.9494259357452,None,2,1,780.9494259357452,None,,,,,0.9134430885314941,1000,001,01,2021_Nov_02_1513,task-switching-replication,2021.2.3,60.004177384327946,
1,44,experiment,01,standing,noswitch,incongruant,solid,square,blue,stimuli/solid-rectangle.png,stimuli/blue-square.png,1,,,,,,,,,,,,,,,,,,,,,,,,,0,0,0,0,0,0,0,0,0,43,43,43,,,,,,,,,,,,,,,,,,,,,,,,,,,,,,,,,,,,,,,,,,,,,,,,,,,,,,,,,,,,,,,,,,,,,,,,783.6776299476624,None,,,,,,,,,,,,,,,,,,,,,,,,,,,,,,,,,,,,,,782.2019050121307,None,783.1857008934021,None,1,1,783.1857008934021,None,,,,,0.37580108642578125,1000,001,01,2021_Nov_02_1513,task-switching-replication,2021.2.3,60.004177384327946,
1,45,experiment,01,standing,noswitch,congruant,solid,triangle,blue,stimuli/solid-rectangle.png,stimuli/blue-triangle.png,1,,,,,,,,,,,,,,,,,,,,,,,,,0,0,0,0,0,0,0,0,0,44,44,44,,,,,,,,,,,,,,,,,,,,,,,,,,,,,,,,,,,,,,,,,,,,,,,,,,,,,,,,,,,,,,,,,,,,,,,,786.2117118835449,None,,,,,,,,,,,,,,,,,,,,,,,,,,,,,,,,,,,,,,783.9067659378052,None,784.8933517932892,None,1,1,784.8933517932892,None,,,,,1.1751790046691895,1000,001,01,2021_Nov_02_1513,task-switching-replication,2021.2.3,60.004177384327946,
1,46,experiment,01,standing,switch,incongruant,dashed,square,blue,stimuli/dashed-rectangle.png,stimuli/blue-square.png,2,,,,,,,,,,,,,,,,,,,,,,,,,0,0,0,0,0,0,0,0,0,45,45,45,,,,,,,,,,,,,,,,,,,,,,,,,,,,,,,,,,,,,,,,,,,,,,,,,,,,,,,,,,,,,,,,,,,,,,,,788.6250519752502,None,,,,,,,,,,,,,,,,,,,,,,,,,,,,,,,,,,,,,,786.4407079219818,None,787.4248728752136,None,2,1,787.4248728752136,None,,,,,1.0618839263916016,1000,001,01,2021_Nov_02_1513,task-switching-replication,2021.2.3,60.004177384327946,
1,47,experiment,01,standing,noswitch,incongruant,dashed,triangle,yellow,stimuli/dashed-rectangle.png,stimuli/yellow-triangle.png,1,,,,,,,,,,,,,,,,,,,,,,,,,0,0,0,0,0,0,0,0,0,46,46,46,,,,,,,,,,,,,,,,,,,,,,,,,,,,,,,,,,,,,,,,,,,,,,,,,,,,,,,,,,,,,,,,,,,,,,,,790.8612577915192,None,,,,,,,,,,,,,,,,,,,,,,,,,,,,,,,,,,,,,,788.8541188240051,None,789.8384029865265,None,1,1,789.8384029865265,None,,,,,0.9231629371643066,1000,001,01,2021_Nov_02_1513,task-switching-replication,2021.2.3,60.004177384327946,
1,48,experiment,01,standing,switch,incongruant,solid,square,yellow,stimuli/solid-rectangle.png,stimuli/yellow-square.png,2,,,,,,,,,,,,,,,,,,,,,,,,,0,0,0,0,0,0,0,0,0,47,47,47,0,0,0,0,,,,,,,,,,,,,,,,,,,,,,,,,,,,,,,,,,,,,,,,,,,,,,,,,,,,,,,,,,,,,,,,,,,,,,792.8332407474518,793.8508098125458,792.865875005722,None,,,,,,,,,,,,,,,,,,,,,,,,,,,,,,,,,,791.0897459983826,None,792.0739369392395,None,1,0,792.0739369392395,None,,,,,0.6685519218444824,1000,001,01,2021_Nov_02_1513,task-switching-replication,2021.2.3,60.004177384327946,
1,48,experiment,01,standing,switch,incongruant,solid,square,yellow,stimuli/solid-rectangle.png,stimuli/yellow-square.png,2,,,,,,,,,,,,,,,,,,,,,,,,,0,0,0,0,0,0,0,0,0,47,47,47,,,,,,,,,,,,,,,,,,,,,,,,,,,,,,,,,,,,,,,,,,,,,,,,,,,,,,,,,,,,,,,,,,,,,,,,797.8871479034424,None,,,,,,,,,,,,,,,,,,,,,,,,,,,,,,,,,,,,,,,,,,,,,,,,,,,1000,001,01,2021_Nov_02_1513,task-switching-replication,2021.2.3,60.004177384327946,
1,49,experiment,01,standing,noswitch,incongruant,solid,square,blue,stimuli/solid-rectangle.png,stimuli/blue-square.png,1,,,,,,,,,,,,,,,,,,,,,,,,,0,0,0,0,0,0,0,0,0,48,48,48,0,0,0,0,,,,,,,,,,,,,,,,,,,,,,,,,,,,,,,,,,,,,,,,,,,,,,,,,,,,,,,,,,,,,,,,,,,,,,799.9432978630066,800.9935309886932,799.9754679203033,None,,,,,,,,,,,,,,,,,,,,,,,,,,,,,,,,,,798.0837109088898,None,799.0670049190521,None,2,0,799.0670049190521,None,,,,,0.8034420013427734,1000,001,01,2021_Nov_02_1513,task-switching-replication,2021.2.3,60.004177384327946,
1,49,experiment,01,standing,noswitch,incongruant,solid,square,blue,stimuli/solid-rectangle.png,stimuli/blue-square.png,1,,,,,,,,,,,,,,,,,,,,,,,,,0,0,0,0,0,0,0,0,0,48,48,48,,,,,,,,,,,,,,,,,,,,,,,,,,,,,,,,,,,,,,,,,,,,,,,,,,,,,,,,,,,,,,,,,,,,,,,,804.9948279857635,None,,,,,,,,,,,,,,,,,,,,,,,,,,,,,,,,,,,,,,,,,,,,,,,,,,,1000,001,01,2021_Nov_02_1513,task-switching-replication,2021.2.3,60.004177384327946,
,,,01,,,,,,,,,,,,,,,,,,,,,,,,,,,,,,,,,,0,0,0,0,0,0,0,0,,,,,,,,,,,,,,,,,,,,,,,,,,,,,,,,,,,,,,,,,,,,,,,,,,,,,,,,,,,,,,,,,,,,,,,,,,,,,,,,,,,,,,,,,,,,,,,,,,,,,,,,,,,,,,,,,,,,,,,,,,,,,,,,1000,001,01,2021_Nov_02_1513,task-switching-replication,2021.2.3,60.004177384327946,
2,1,experiment,01,standing,buffer,buffer,solid,triangle,yellow,stimuli/solid-rectangle.png,stimuli/yellow-triangle.png,2,,,,,,,,,,,,,,,,,,,,,,,,,0,0,0,0,1,0,1,0,0,0,0,0,0,0,0,0,,,,,,,,,,,,,,,,,,,,,,,,,,,,,,,,,,,,,,,,,,,,,,,,,,,,,,,,,,,,,,,,,,,,,,814.6876009464263,815.7387058734894,814.7194428443909,None,,,,,,,,,,,,,,,,,,,,,,805.1923849582672,None,1,1.2622668743133545,805.1923849582672,None,806.5931379795074,None,1,5.434294939041138,806.5931379795074,None,812.1662588119507,None,813.1501479148865,None,None,0,813.1501479148865,None,,,,,,1000,001,01,2021_Nov_02_1513,task-switching-replication,2021.2.3,60.004177384327946,
2,1,experiment,01,standing,buffer,buffer,solid,triangle,yellow,stimuli/solid-rectangle.png,stimuli/yellow-triangle.png,2,,,,,,,,,,,,,,,,,,,,,,,,,0,0,0,0,1,0,1,0,0,0,0,0,,,,,,,,,,,,,,,,,,,,,,,,,,,,,,,,,,,,,,,,,,,,,,,,,,,,,,,,,,,,,,,,,,,,,,,,819.7394959926605,None,,,,,,,,,,,,,,,,,,,,,,,,,,,,,,,,,,,,,,,,,,,,,,,,,,,1000,001,01,2021_Nov_02_1513,task-switching-replication,2021.2.3,60.004177384327946,
2,2,experiment,01,standing,switch,incongruant,dashed,triangle,yellow,stimuli/dashed-rectangle.png,stimuli/yellow-triangle.png,1,,,,,,,,,,,,,,,,,,,,,,,,,0,0,0,0,1,0,1,0,0,1,1,1,,,,,0,0,0,0,,,,,,,,,,,,,,,,,,,,,,,,,,,,,,,,,,,,,,,,,,,,,,,,,,,,,,,,,,,,,,,,,,,,,,,,,,,,,,,,,,,,,,,,,,,,,,,,,,,,,,,819.935998916626,None,820.9218327999115,None,None,0,820.9218327999115,None,822.4578028678893,823.5091438293457,822.4892938137054,None,,1000,001,01,2021_Nov_02_1513,task-switching-replication,2021.2.3,60.004177384327946,
2,2,experiment,01,standing,switch,incongruant,dashed,triangle,yellow,stimuli/dashed-rectangle.png,stimuli/yellow-triangle.png,1,,,,,,,,,,,,,,,,,,,,,,,,,0,0,0,0,1,0,1,0,0,1,1,1,,,,,,,,,,,,,,,,,,,,,,,,,,,,,,,,,,,,,,,,,,,,,,,,,,,,,,,,,,,,,,,,,,,,,,,,827.5115489959717,None,,,,,,,,,,,,,,,,,,,,,,,,,,,,,,,,,,,,,,,,,,,,,,,,,,,1000,001,01,2021_Nov_02_1513,task-switching-replication,2021.2.3,60.004177384327946,
2,3,experiment,01,standing,noswitch,incongruant,dashed,square,yellow,stimuli/dashed-rectangle.png,stimuli/yellow-square.png,2,,,,,,,,,,,,,,,,,,,,,,,,,0,0,0,0,1,0,1,0,0,2,2,2,,,,,,,,,,,,,,,,,,,,,,,,,,,,,,,,,,,,,,,,,,,,,,,,,,,,,,,,,,,,,,,,,,,,,,,,829.4258859157562,None,,,,,,,,,,,,,,,,,,,,,,,,,,,,,,,,,,,,,,827.7081458568573,None,828.6934030056,None,2,1,828.6934030056,None,,,,,0.599052906036377,1000,001,01,2021_Nov_02_1513,task-switching-replication,2021.2.3,60.004177384327946,
2,4,experiment,01,standing,noswitch,incongruant,dashed,triangle,blue,stimuli/dashed-rectangle.png,stimuli/blue-triangle.png,1,,,,,,,,,,,,,,,,,,,,,,,,,0,0,0,0,1,0,1,0,0,3,3,3,,,,,,,,,,,,,,,,,,,,,,,,,,,,,,,,,,,,,,,,,,,,,,,,,,,,,,,,,,,,,,,,,,,,,,,,831.3671448230743,None,,,,,,,,,,,,,,,,,,,,,,,,,,,,,,,,,,,,,,829.6548879146576,None,830.6394498348236,None,1,1,830.6394498348236,None,,,,,0.6114771366119385,1000,001,01,2021_Nov_02_1513,task-switching-replication,2021.2.3,60.004177384327946,
2,5,experiment,01,standing,noswitch,congruant,dashed,triangle,blue,stimuli/dashed-rectangle.png,stimuli/blue-triangle.png,1,,,,,,,,,,,,,,,,,,,,,,,,,0,0,0,0,1,0,1,0,0,4,4,4,,,,,,,,,,,,,,,,,,,,,,,,,,,,,,,,,,,,,,,,,,,,,,,,,,,,,,,,,,,,,,,,,,,,,,,,833.1328887939453,None,,,,,,,,,,,,,,,,,,,,,,,,,,,,,,,,,,,,,,831.5968489646912,None,832.5820097923279,None,1,1,832.5820097923279,None,,,,,0.4563019275665283,1000,001,01,2021_Nov_02_1513,task-switching-replication,2021.2.3,60.004177384327946,
2,6,experiment,01,standing,switch,congruant,solid,triangle,blue,stimuli/solid-rectangle.png,stimuli/blue-triangle.png,1,,,,,,,,,,,,,,,,,,,,,,,,,0,0,0,0,1,0,1,0,0,5,5,5,,,,,,,,,,,,,,,,,,,,,,,,,,,,,,,,,,,,,,,,,,,,,,,,,,,,,,,,,,,,,,,,,,,,,,,,835.25190782547,None,,,,,,,,,,,,,,,,,,,,,,,,,,,,,,,,,,,,,,833.3619368076324,None,834.346617937088,None,1,1,834.346617937088,None,,,,,0.791795015335083,1000,001,01,2021_Nov_02_1513,task-switching-replication,2021.2.3,60.004177384327946,
2,7,experiment,01,standing,switch,congruant,dashed,triangle,yellow,stimuli/dashed-rectangle.png,stimuli/yellow-triangle.png,1,,,,,,,,,,,,,,,,,,,,,,,,,0,0,0,0,1,0,1,0,0,6,6,6,,,,,,,,,,,,,,,,,,,,,,,,,,,,,,,,,,,,,,,,,,,,,,,,,,,,,,,,,,,,,,,,,,,,,,,,837.6661438941956,None,,,,,,,,,,,,,,,,,,,,,,,,,,,,,,,,,,,,,,835.4812088012695,None,836.4669418334961,None,1,1,836.4669418334961,None,,,,,1.0903029441833496,1000,001,01,2021_Nov_02_1513,task-switching-replication,2021.2.3,60.004177384327946,
2,8,experiment,01,standing,noswitch,incongruant,dashed,square,blue,stimuli/dashed-rectangle.png,stimuli/blue-square.png,2,,,,,,,,,,,,,,,,,,,,,,,,,0,0,0,0,1,0,1,0,0,7,7,7,,,,,,,,,,,,,,,,,,,,,,,,,,,,,,,,,,,,,,,,,,,,,,,,,,,,,,,,,,,,,,,,,,,,,,,,839.370757818222,None,,,,,,,,,,,,,,,,,,,,,,,,,,,,,,,,,,,,,,837.8952388763428,None,838.8796248435974,None,2,1,838.8796248435974,None,,,,,0.3949911594390869,1000,001,01,2021_Nov_02_1513,task-switching-replication,2021.2.3,60.004177384327946,
2,9,experiment,01,standing,switch,incongruant,solid,square,blue,stimuli/solid-rectangle.png,stimuli/blue-square.png,1,,,,,,,,,,,,,,,,,,,,,,,,,0,0,0,0,1,0,1,0,0,8,8,8,,,,,,,,,,,,,,,,,,,,,,,,,,,,,,,,,,,,,,,,,,,,,,,,,,,,,,,,,,,,,,,,,,,,,,,,841.5494608879089,None,,,,,,,,,,,,,,,,,,,,,,,,,,,,,,,,,,,,,,839.6005790233612,None,840.5855298042297,None,1,1,840.5855298042297,None,,,,,0.8459701538085938,1000,001,01,2021_Nov_02_1513,task-switching-replication,2021.2.3,60.004177384327946,
2,10,experiment,01,standing,noswitch,congruant,solid,square,blue,stimuli/solid-rectangle.png,stimuli/blue-square.png,1,,,,,,,,,,,,,,,,,,,,,,,,,0,0,0,0,1,0,1,0,0,9,9,9,,,,,,,,,,,,,,,,,,,,,,,,,,,,,,,,,,,,,,,,,,,,,,,,,,,,,,,,,,,,,,,,,,,,,,,,843.3137938976288,None,,,,,,,,,,,,,,,,,,,,,,,,,,,,,,,,,,,,,,841.7785959243774,None,842.7627789974213,None,1,1,842.7627789974213,None,,,,,0.4324531555175781,1000,001,01,2021_Nov_02_1513,task-switching-replication,2021.2.3,60.004177384327946,
2,11,experiment,01,standing,switch,congruant,dashed,triangle,blue,stimuli/dashed-rectangle.png,stimuli/blue-triangle.png,1,,,,,,,,,,,,,,,,,,,,,,,,,0,0,0,0,1,0,1,0,0,10,10,10,,,,,,,,,,,,,,,,,,,,,,,,,,,,,,,,,,,,,,,,,,,,,,,,,,,,,,,,,,,,,,,,,,,,,,,,845.4329738616943,None,,,,,,,,,,,,,,,,,,,,,,,,,,,,,,,,,,,,,,843.5428829193115,None,844.5276889801025,None,1,1,844.5276889801025,None,,,,,0.8097081184387207,1000,001,01,2021_Nov_02_1513,task-switching-replication,2021.2.3,60.004177384327946,
2,12,experiment,01,standing,noswitch,congruant,dashed,triangle,blue,stimuli/dashed-rectangle.png,stimuli/blue-triangle.png,1,,,,,,,,,,,,,,,,,,,,,,,,,0,0,0,0,1,0,1,0,0,11,11,11,,,,,,,,,,,,,,,,,,,,,,,,,,,,,,,,,,,,,,,,,,,,,,,,,,,,,,,,,,,,,,,,,,,,,,,,847.2604668140411,None,,,,,,,,,,,,,,,,,,,,,,,,,,,,,,,,,,,,,,845.6629819869995,None,846.6500809192657,None,1,1,846.6500809192657,None,,,,,0.48133015632629395,1000,001,01,2021_Nov_02_1513,task-switching-replication,2021.2.3,60.004177384327946,
2,13,experiment,01,standing,noswitch,congruant,dashed,triangle,yellow,stimuli/dashed-rectangle.png,stimuli/yellow-triangle.png,1,,,,,,,,,,,,,,,,,,,,,,,,,0,0,0,0,1,0,1,0,0,12,12,12,,,,,0,0,0,0,,,,,,,,,,,,,,,,,,,,,,,,,,,,,,,,,,,,,,,,,,,,,,,,,,,,,,,,,,,,,,,,,,,,,,,,,,,,,,,,,,,,,,,,,,,,,,,,,,,,,,,847.489254951477,None,848.4744699001312,None,2,0,848.4744699001312,None,849.7658839225769,850.8174288272858,849.7984578609467,None,1.1801021099090576,1000,001,01,2021_Nov_02_1513,task-switching-replication,2021.2.3,60.004177384327946,
2,13,experiment,01,standing,noswitch,congruant,dashed,triangle,yellow,stimuli/dashed-rectangle.png,stimuli/yellow-triangle.png,1,,,,,,,,,,,,,,,,,,,,,,,,,0,0,0,0,1,0,1,0,0,12,12,12,,,,,,,,,,,,,,,,,,,,,,,,,,,,,,,,,,,,,,,,,,,,,,,,,,,,,,,,,,,,,,,,,,,,,,,,854.8247938156128,None,,,,,,,,,,,,,,,,,,,,,,,,,,,,,,,,,,,,,,,,,,,,,,,,,,,1000,001,01,2021_Nov_02_1513,task-switching-replication,2021.2.3,60.004177384327946,
2,14,experiment,01,standing,noswitch,incongruant,dashed,square,blue,stimuli/dashed-rectangle.png,stimuli/blue-square.png,2,,,,,,,,,,,,,,,,,,,,,,,,,0,0,0,0,1,0,1,0,0,13,13,13,,,,,0,0,0,0,,,,,,,,,,,,,,,,,,,,,,,,,,,,,,,,,,,,,,,,,,,,,,,,,,,,,,,,,,,,,,,,,,,,,,,,,,,,,,,,,,,,,,,,,,,,,,,,,,,,,,,855.0213468074799,None,856.0062007904053,None,None,0,856.0062007904053,None,857.541769838333,858.5928819179535,857.5732579231262,None,,1000,001,01,2021_Nov_02_1513,task-switching-replication,2021.2.3,60.004177384327946,
2,14,experiment,01,standing,noswitch,incongruant,dashed,square,blue,stimuli/dashed-rectangle.png,stimuli/blue-square.png,2,,,,,,,,,,,,,,,,,,,,,,,,,0,0,0,0,1,0,1,0,0,13,13,13,,,,,,,,,,,,,,,,,,,,,,,,,,,,,,,,,,,,,,,,,,,,,,,,,,,,,,,,,,,,,,,,,,,,,,,,862.5995299816132,None,,,,,,,,,,,,,,,,,,,,,,,,,,,,,,,,,,,,,,,,,,,,,,,,,,,1000,001,01,2021_Nov_02_1513,task-switching-replication,2021.2.3,60.004177384327946,
2,15,experiment,01,standing,noswitch,congruant,dashed,square,yellow,stimuli/dashed-rectangle.png,stimuli/yellow-square.png,2,,,,,,,,,,,,,,,,,,,,,,,,,0,0,0,0,1,0,1,0,0,14,14,14,,,,,,,,,,,,,,,,,,,,,,,,,,,,,,,,,,,,,,,,,,,,,,,,,,,,,,,,,,,,,,,,,,,,,,,,864.8028798103333,None,,,,,,,,,,,,,,,,,,,,,,,,,,,,,,,,,,,,,,862.7960000038147,None,863.7798027992249,None,2,1,863.7798027992249,None,,,,,0.879464864730835,1000,001,01,2021_Nov_02_1513,task-switching-replication,2021.2.3,60.004177384327946,
2,16,experiment,01,standing,switch,congruant,solid,square,yellow,stimuli/solid-rectangle.png,stimuli/yellow-square.png,2,,,,,,,,,,,,,,,,,,,,,,,,,0,0,0,0,1,0,1,0,0,15,15,15,,,,,,,,,,,,,,,,,,,,,,,,,,,,,,,,,,,,,,,,,,,,,,,,,,,,,,,,,,,,,,,,,,,,,,,,866.626532793045,None,,,,,,,,,,,,,,,,,,,,,,,,,,,,,,,,,,,,,,865.0317358970642,None,866.016608953476,None,2,1,866.016608953476,None,,,,,0.4847910404205322,1000,001,01,2021_Nov_02_1513,task-switching-replication,2021.2.3,60.004177384327946,
2,17,experiment,01,standing,switch,incongruant,dashed,triangle,blue,stimuli/dashed-rectangle.png,stimuli/blue-triangle.png,1,,,,,,,,,,,,,,,,,,,,,,,,,0,0,0,0,1,0,1,0,0,16,16,16,,,,,,,,,,,,,,,,,,,,,,,,,,,,,,,,,,,,,,,,,,,,,,,,,,,,,,,,,,,,,,,,,,,,,,,,868.5128109455109,None,,,,,,,,,,,,,,,,,,,,,,,,,,,,,,,,,,,,,,866.8557448387146,None,867.8409199714661,None,1,1,867.8409199714661,None,,,,,0.5382108688354492,1000,001,01,2021_Nov_02_1513,task-switching-replication,2021.2.3,60.004177384327946,
2,18,experiment,01,standing,noswitch,incongruant,dashed,square,yellow,stimuli/dashed-rectangle.png,stimuli/yellow-square.png,2,,,,,,,,,,,,,,,,,,,,,,,,,0,0,0,0,1,0,1,0,0,17,17,17,,,,,,,,,,,,,,,,,,,,,,,,,,,,,,,,,,,,,,,,,,,,,,,,,,,,,,,,,,,,,,,,,,,,,,,,870.3377578258514,None,,,,,,,,,,,,,,,,,,,,,,,,,,,,,,,,,,,,,,868.7426669597626,None,869.7283048629761,None,2,1,869.7283048629761,None,,,,,0.4958319664001465,1000,001,01,2021_Nov_02_1513,task-switching-replication,2021.2.3,60.004177384327946,
2,19,experiment,01,standing,switch,incongruant,solid,triangle,blue,stimuli/solid-rectangle.png,stimuli/blue-triangle.png,1,,,,,,,,,,,,,,,,,,,,,,,,,0,0,0,0,1,0,1,0,0,18,18,18,,,,,,,,,,,,,,,,,,,,,,,,,,,,,,,,,,,,,,,,,,,,,,,,,,,,,,,,,,,,,,,,,,,,,,,,872.1609859466553,None,,,,,,,,,,,,,,,,,,,,,,,,,,,,,,,,,,,,,,870.5667979717255,None,871.5515170097351,None,1,1,871.5515170097351,None,,,,,0.508476972579956,1000,001,01,2021_Nov_02_1513,task-switching-replication,2021.2.3,60.004177384327946,
2,20,experiment,01,standing,switch,incongruant,dashed,square,blue,stimuli/dashed-rectangle.png,stimuli/blue-square.png,2,,,,,,,,,,,,,,,,,,,,,,,,,0,0,0,0,1,0,1,0,0,19,19,19,,,,,,,,,,,,,,,,,,,,,,,,,,,,,,,,,,,,,,,,,,,,,,,,,,,,,,,,,,,,,,,,,,,,,,,,874.1597049236298,None,,,,,,,,,,,,,,,,,,,,,,,,,,,,,,,,,,,,,,872.3897008895874,None,873.3740799427032,None,2,1,873.3740799427032,None,,,,,0.6322948932647705,1000,001,01,2021_Nov_02_1513,task-switching-replication,2021.2.3,60.004177384327946,
2,21,experiment,01,standing,switch,congruant,solid,triangle,yellow,stimuli/solid-rectangle.png,stimuli/yellow-triangle.png,2,,,,,,,,,,,,,,,,,,,,,,,,,0,0,0,0,1,0,1,0,0,20,20,20,,,,,,,,,,,,,,,,,,,,,,,,,,,,,,,,,,,,,,,,,,,,,,,,,,,,,,,,,,,,,,,,,,,,,,,,876.2784698009491,None,,,,,,,,,,,,,,,,,,,,,,,,,,,,,,,,,,,,,,874.3887429237366,None,875.3732450008392,None,2,1,875.3732450008392,None,,,,,0.7599258422851562,1000,001,01,2021_Nov_02_1513,task-switching-replication,2021.2.3,60.004177384327946,
2,22,experiment,01,standing,switch,congruant,dashed,square,blue,stimuli/dashed-rectangle.png,stimuli/blue-square.png,2,,,,,,,,,,,,,,,,,,,,,,,,,0,0,0,0,1,0,1,0,0,21,21,21,,,,,,,,,,,,,,,,,,,,,,,,,,,,,,,,,,,,,,,,,,,,,,,,,,,,,,,,,,,,,,,,,,,,,,,,878.5160548686981,None,,,,,,,,,,,,,,,,,,,,,,,,,,,,,,,,,,,,,,876.5074458122253,None,877.4925608634949,None,2,1,877.4925608634949,None,,,,,0.9306271076202393,1000,001,01,2021_Nov_02_1513,task-switching-replication,2021.2.3,60.004177384327946,
2,23,experiment,01,standing,switch,incongruant,solid,triangle,blue,stimuli/solid-rectangle.png,stimuli/blue-triangle.png,1,,,,,,,,,,,,,,,,,,,,,,,,,0,0,0,0,1,0,1,0,0,22,22,22,,,,,,,,,,,,,,,,,,,,,,,,,,,,,,,,,,,,,,,,,,,,,,,,,,,,,,,,,,,,,,,,,,,,,,,,880.4053928852081,None,,,,,,,,,,,,,,,,,,,,,,,,,,,,,,,,,,,,,,878.7453320026398,None,879.7323989868164,None,1,1,879.7323989868164,None,,,,,0.5441689491271973,1000,001,01,2021_Nov_02_1513,task-switching-replication,2021.2.3,60.004177384327946,
2,24,experiment,01,standing,noswitch,incongruant,solid,square,yellow,stimuli/solid-rectangle.png,stimuli/yellow-square.png,2,,,,,,,,,,,,,,,,,,,,,,,,,0,0,0,0,1,0,1,0,0,23,23,23,,,,,,,,,,,,,,,,,,,,,,,,,,,,,,,,,,,,,,,,,,,,,,,,,,,,,,,,,,,,,,,,,,,,,,,,882.8196678161621,None,,,,,,,,,,,,,,,,,,,,,,,,,,,,,,,,,,,,,,880.6344029903412,None,881.6197040081024,None,2,1,881.6197040081024,None,,,,,1.1020069122314453,1000,001,01,2021_Nov_02_1513,task-switching-replication,2021.2.3,60.004177384327946,
2,25,experiment,01,standing,switch,congruant,dashed,square,blue,stimuli/dashed-rectangle.png,stimuli/blue-square.png,2,,,,,,,,,,,,,,,,,,,,,,,,,0,0,0,0,1,0,1,0,0,24,24,24,,,,,,,,,,,,,,,,,,,,,,,,,,,,,,,,,,,,,,,,,,,,,,,,,,,,,,,,,,,,,,,,,,,,,,,,885.471177816391,None,,,,,,,,,,,,,,,,,,,,,,,,,,,,,,,,,,,,,,883.0487549304962,None,884.0340030193329,None,2,1,884.0340030193329,None,,,,,1.3012521266937256,1000,001,01,2021_Nov_02_1513,task-switching-replication,2021.2.3,60.004177384327946,
2,26,experiment,01,standing,switch,congruant,solid,square,yellow,stimuli/solid-rectangle.png,stimuli/yellow-square.png,2,,,,,,,,,,,,,,,,,,,,,,,,,0,0,0,0,1,0,1,0,0,25,25,25,,,,,,,,,,,,,,,,,,,,,,,,,,,,,,,,,,,,,,,,,,,,,,,,,,,,,,,,,,,,,,,,,,,,,,,,887.8861978054047,None,,,,,,,,,,,,,,,,,,,,,,,,,,,,,,,,,,,,,,885.7002389431,None,886.6849768161774,None,2,1,886.6849768161774,None,,,,,1.0600998401641846,1000,001,01,2021_Nov_02_1513,task-switching-replication,2021.2.3,60.004177384327946,
2,27,experiment,01,standing,switch,congruant,dashed,square,yellow,stimuli/dashed-rectangle.png,stimuli/yellow-square.png,2,,,,,,,,,,,,,,,,,,,,,,,,,0,0,0,0,1,0,1,0,0,26,26,26,,,,,,,,,,,,,,,,,,,,,,,,,,,,,,,,,,,,,,,,,,,,,,,,,,,,,,,,,,,,,,,,,,,,,,,,889.8291928768158,None,,,,,,,,,,,,,,,,,,,,,,,,,,,,,,,,,,,,,,888.1155819892883,None,889.101212978363,None,2,1,889.101212978363,None,,,,,0.5990350246429443,1000,001,01,2021_Nov_02_1513,task-switching-replication,2021.2.3,60.004177384327946,
2,28,experiment,01,standing,switch,incongruant,solid,square,blue,stimuli/solid-rectangle.png,stimuli/blue-square.png,1,,,,,,,,,,,,,,,,,,,,,,,,,0,0,0,0,1,0,1,0,0,27,27,27,,,,,,,,,,,,,,,,,,,,,,,,,,,,,,,,,,,,,,,,,,,,,,,,,,,,,,,,,,,,,,,,,,,,,,,,891.8949728012085,None,,,,,,,,,,,,,,,,,,,,,,,,,,,,,,,,,,,,,,890.0577838420868,None,891.042270898819,None,1,1,891.042270898819,None,,,,,0.7279388904571533,1000,001,01,2021_Nov_02_1513,task-switching-replication,2021.2.3,60.004177384327946,
2,29,experiment,01,standing,noswitch,incongruant,solid,triangle,yellow,stimuli/solid-rectangle.png,stimuli/yellow-triangle.png,2,,,,,,,,,,,,,,,,,,,,,,,,,0,0,0,0,1,0,1,0,0,28,28,28,,,,,,,,,,,,,,,,,,,,,,,,,,,,,,,,,,,,,,,,,,,,,,,,,,,,,,,,,,,,,,,,,,,,,,,,893.8951778411865,None,,,,,,,,,,,,,,,,,,,,,,,,,,,,,,,,,,,,,,892.1237750053406,None,893.1081519126892,None,2,1,893.1081519126892,None,,,,,0.6690399646759033,1000,001,01,2021_Nov_02_1513,task-switching-replication,2021.2.3,60.004177384327946,
2,30,experiment,01,standing,noswitch,congruant,solid,triangle,yellow,stimuli/solid-rectangle.png,stimuli/yellow-triangle.png,2,,,,,,,,,,,,,,,,,,,,,,,,,0,0,0,0,1,0,1,0,0,29,29,29,,,,,,,,,,,,,,,,,,,,,,,,,,,,,,,,,,,,,,,,,,,,,,,,,,,,,,,,,,,,,,,,,,,,,,,,895.9557168483734,None,,,,,,,,,,,,,,,,,,,,,,,,,,,,,,,,,,,,,,894.1239659786224,None,895.1088588237762,None,2,1,895.1088588237762,None,,,,,0.7443161010742188,1000,001,01,2021_Nov_02_1513,task-switching-replication,2021.2.3,60.004177384327946,
2,31,experiment,01,standing,switch,congruant,dashed,square,yellow,stimuli/dashed-rectangle.png,stimuli/yellow-square.png,2,,,,,,,,,,,,,,,,,,,,,,,,,0,0,0,0,1,0,1,0,0,30,30,30,,,,,,,,,,,,,,,,,,,,,,,,,,,,,,,,,,,,,,,,,,,,,,,,,,,,,,,,,,,,,,,,,,,,,,,,898.3702509403229,None,,,,,,,,,,,,,,,,,,,,,,,,,,,,,,,,,,,,,,896.1847620010376,None,897.1693148612976,None,2,1,897.1693148612976,None,,,,,1.0778930187225342,1000,001,01,2021_Nov_02_1513,task-switching-replication,2021.2.3,60.004177384327946,
2,32,experiment,01,standing,switch,incongruant,solid,triangle,blue,stimuli/solid-rectangle.png,stimuli/blue-triangle.png,1,,,,,,,,,,,,,,,,,,,,,,,,,0,0,0,0,1,0,1,0,0,31,31,31,,,,,,,,,,,,,,,,,,,,,,,,,,,,,,,,,,,,,,,,,,,,,,,,,,,,,,,,,,,,,,,,,,,,,,,,900.1974868774414,None,,,,,,,,,,,,,,,,,,,,,,,,,,,,,,,,,,,,,,898.5994658470154,None,899.5838499069214,None,1,1,899.5838499069214,None,,,,,0.46507811546325684,1000,001,01,2021_Nov_02_1513,task-switching-replication,2021.2.3,60.004177384327946,
2,33,experiment,01,standing,switch,incongruant,dashed,square,yellow,stimuli/dashed-rectangle.png,stimuli/yellow-square.png,2,,,,,,,,,,,,,,,,,,,,,,,,,0,0,0,0,1,0,1,0,0,32,32,32,,,,,,,,,,,,,,,,,,,,,,,,,,,,,,,,,,,,,,,,,,,,,,,,,,,,,,,,,,,,,,,,,,,,,,,,902.1398940086365,None,,,,,,,,,,,,,,,,,,,,,,,,,,,,,,,,,,,,,,900.4267008304596,None,901.4116399288177,None,2,1,901.4116399288177,None,,,,,0.6207828521728516,1000,001,01,2021_Nov_02_1513,task-switching-replication,2021.2.3,60.004177384327946,
2,34,experiment,01,standing,noswitch,congruant,dashed,square,blue,stimuli/dashed-rectangle.png,stimuli/blue-square.png,2,,,,,,,,,,,,,,,,,,,,,,,,,0,0,0,0,1,0,1,0,0,33,33,33,,,,,,,,,,,,,,,,,,,,,,,,,,,,,,,,,,,,,,,,,,,,,,,,,,,,,,,,,,,,,,,,,,,,,,,,904.200621843338,None,,,,,,,,,,,,,,,,,,,,,,,,,,,,,,,,,,,,,,902.3687808513641,None,903.3543360233307,None,2,1,903.3543360233307,None,,,,,0.7547872066497803,1000,001,01,2021_Nov_02_1513,task-switching-replication,2021.2.3,60.004177384327946,
2,35,experiment,01,standing,switch,incongruant,solid,square,blue,stimuli/solid-rectangle.png,stimuli/blue-square.png,1,,,,,,,,,,,,,,,,,,,,,,,,,0,0,0,0,1,0,1,0,0,34,34,34,,,,,,,,,,,,,,,,,,,,,,,,,,,,,,,,,,,,,,,,,,,,,,,,,,,,,,,,,,,,,,,,,,,,,,,,906.3193309307098,None,,,,,,,,,,,,,,,,,,,,,,,,,,,,,,,,,,,,,,904.4298038482666,None,905.4147429466248,None,1,1,905.4147429466248,None,,,,,0.8057389259338379,1000,001,01,2021_Nov_02_1513,task-switching-replication,2021.2.3,60.004177384327946,
2,36,experiment,01,standing,switch,congruant,dashed,triangle,yellow,stimuli/dashed-rectangle.png,stimuli/yellow-triangle.png,1,,,,,,,,,,,,,,,,,,,,,,,,,0,0,0,0,1,0,1,0,0,35,35,35,,,,,,,,,,,,,,,,,,,,,,,,,,,,,,,,,,,,,,,,,,,,,,,,,,,,,,,,,,,,,,,,,,,,,,,,908.2013649940491,None,,,,,,,,,,,,,,,,,,,,,,,,,,,,,,,,,,,,,,906.5484619140625,None,907.5327529907227,None,1,1,907.5327529907227,None,,,,,0.5251719951629639,1000,001,01,2021_Nov_02_1513,task-switching-replication,2021.2.3,60.004177384327946,
2,37,experiment,01,standing,switch,incongruant,solid,triangle,yellow,stimuli/solid-rectangle.png,stimuli/yellow-triangle.png,2,,,,,,,,,,,,,,,,,,,,,,,,,0,0,0,0,1,0,1,0,0,36,36,36,,,,,,,,,,,,,,,,,,,,,,,,,,,,,,,,,,,,,,,,,,,,,,,,,,,,,,,,,,,,,,,,,,,,,,,,910.5032458305359,None,,,,,,,,,,,,,,,,,,,,,,,,,,,,,,,,,,,,,,908.430342912674,None,909.4166429042816,None,2,1,909.4166429042816,None,,,,,0.9580318927764893,1000,001,01,2021_Nov_02_1513,task-switching-replication,2021.2.3,60.004177384327946,
2,38,experiment,01,standing,switch,incongruant,dashed,triangle,blue,stimuli/dashed-rectangle.png,stimuli/blue-triangle.png,1,,,,,,,,,,,,,,,,,,,,,,,,,0,0,0,0,1,0,1,0,0,37,37,37,,,,,,,,,,,,,,,,,,,,,,,,,,,,,,,,,,,,,,,,,,,,,,,,,,,,,,,,,,,,,,,,,,,,,,,,912.8586668968201,None,,,,,,,,,,,,,,,,,,,,,,,,,,,,,,,,,,,,,,910.7322268486023,None,911.7167298793793,None,1,1,911.7167298793793,None,,,,,1.0259599685668945,1000,001,01,2021_Nov_02_1513,task-switching-replication,2021.2.3,60.004177384327946,
2,39,experiment,01,standing,noswitch,congruant,dashed,triangle,yellow,stimuli/dashed-rectangle.png,stimuli/yellow-triangle.png,1,,,,,,,,,,,,,,,,,,,,,,,,,0,0,0,0,1,0,1,0,0,38,38,38,,,,,,,,,,,,,,,,,,,,,,,,,,,,,,,,,,,,,,,,,,,,,,,,,,,,,,,,,,,,,,,,,,,,,,,,915.3907749652863,None,,,,,,,,,,,,,,,,,,,,,,,,,,,,,,,,,,,,,,913.087474822998,None,914.0721349716187,None,1,1,914.0721349716187,None,,,,,1.1828668117523193,1000,001,01,2021_Nov_02_1513,task-switching-replication,2021.2.3,60.004177384327946,
2,40,experiment,01,standing,noswitch,congruant,dashed,triangle,yellow,stimuli/dashed-rectangle.png,stimuli/yellow-triangle.png,1,,,,,,,,,,,,,,,,,,,,,,,,,0,0,0,0,1,0,1,0,0,39,39,39,,,,,,,,,,,,,,,,,,,,,,,,,,,,,,,,,,,,,,,,,,,,,,,,,,,,,,,,,,,,,,,,,,,,,,,,917.4502928256989,None,,,,,,,,,,,,,,,,,,,,,,,,,,,,,,,,,,,,,,915.6194949150085,None,916.6041288375854,None,1,1,916.6041288375854,None,,,,,0.7208578586578369,1000,001,01,2021_Nov_02_1513,task-switching-replication,2021.2.3,60.004177384327946,
2,41,experiment,01,standing,switch,congruant,solid,square,blue,stimuli/solid-rectangle.png,stimuli/blue-square.png,1,,,,,,,,,,,,,,,,,,,,,,,,,0,0,0,0,1,0,1,0,0,40,40,40,,,,,,,,,,,,,,,,,,,,,,,,,,,,,,,,,,,,,,,,,,,,,,,,,,,,,,,,,,,,,,,,,,,,,,,,919.7461059093475,None,,,,,,,,,,,,,,,,,,,,,,,,,,,,,,,,,,,,,,917.6791398525238,None,918.6637389659882,None,1,1,918.6637389659882,None,,,,,0.9730942249298096,1000,001,01,2021_Nov_02_1513,task-switching-replication,2021.2.3,60.004177384327946,
2,42,experiment,01,standing,noswitch,incongruant,solid,triangle,yellow,stimuli/solid-rectangle.png,stimuli/yellow-triangle.png,2,,,,,,,,,,,,,,,,,,,,,,,,,0,0,0,0,1,0,1,0,0,41,41,41,,,,,,,,,,,,,,,,,,,,,,,,,,,,,,,,,,,,,,,,,,,,,,,,,,,,,,,,,,,,,,,,,,,,,,,,922.100476026535,None,,,,,,,,,,,,,,,,,,,,,,,,,,,,,,,,,,,,,,919.9750118255615,None,920.9596040248871,None,2,1,920.9596040248871,None,,,,,1.034113883972168,1000,001,01,2021_Nov_02_1513,task-switching-replication,2021.2.3,60.004177384327946,
2,43,experiment,01,standing,noswitch,incongruant,solid,square,blue,stimuli/solid-rectangle.png,stimuli/blue-square.png,1,,,,,,,,,,,,,,,,,,,,,,,,,0,0,0,0,1,0,1,0,0,42,42,42,,,,,,,,,,,,,,,,,,,,,,,,,,,,,,,,,,,,,,,,,,,,,,,,,,,,,,,,,,,,,,,,,,,,,,,,924.0399708747864,None,,,,,,,,,,,,,,,,,,,,,,,,,,,,,,,,,,,,,,922.3290588855743,None,923.3124659061432,None,1,1,923.3124659061432,None,,,,,0.6257269382476807,1000,001,01,2021_Nov_02_1513,task-switching-replication,2021.2.3,60.004177384327946,
2,44,experiment,01,standing,noswitch,incongruant,solid,square,yellow,stimuli/solid-rectangle.png,stimuli/yellow-square.png,2,,,,,,,,,,,,,,,,,,,,,,,,,0,0,0,0,1,0,1,0,0,43,43,43,,,,,,,,,,,,,,,,,,,,,,,,,,,,,,,,,,,,,,,,,,,,,,,,,,,,,,,,,,,,,,,,,,,,,,,,925.744607925415,None,,,,,,,,,,,,,,,,,,,,,,,,,,,,,,,,,,,,,,924.2686278820038,None,925.2534198760986,None,2,1,925.2534198760986,None,,,,,0.3916921615600586,1000,001,01,2021_Nov_02_1513,task-switching-replication,2021.2.3,60.004177384327946,
2,45,experiment,01,standing,noswitch,congruant,solid,square,yellow,stimuli/solid-rectangle.png,stimuli/yellow-square.png,2,,,,,,,,,,,,,,,,,,,,,,,,,0,0,0,0,1,0,1,0,0,44,44,44,,,,,,,,,,,,,,,,,,,,,,,,,,,,,,,,,,,,,,,,,,,,,,,,,,,,,,,,,,,,,,,,,,,,,,,,927.6284439563751,None,,,,,,,,,,,,,,,,,,,,,,,,,,,,,,,,,,,,,,925.9742968082428,None,926.959618806839,None,2,1,926.959618806839,None,,,,,0.5672831535339355,1000,001,01,2021_Nov_02_1513,task-switching-replication,2021.2.3,60.004177384327946,
2,46,experiment,01,standing,noswitch,incongruant,solid,triangle,blue,stimuli/solid-rectangle.png,stimuli/blue-triangle.png,1,,,,,,,,,,,,,,,,,,,,,,,,,0,0,0,0,1,0,1,0,0,45,45,45,,,,,,,,,,,,,,,,,,,,,,,,,,,,,,,,,,,,,,,,,,,,,,,,,,,,,,,,,,,,,,,,,,,,,,,,929.3930089473724,None,,,,,,,,,,,,,,,,,,,,,,,,,,,,,,,,,,,,,,927.857311964035,None,928.841933965683,None,1,1,928.841933965683,None,,,,,0.43594789505004883,1000,001,01,2021_Nov_02_1513,task-switching-replication,2021.2.3,60.004177384327946,
2,47,experiment,01,standing,noswitch,congruant,solid,triangle,blue,stimuli/solid-rectangle.png,stimuli/blue-triangle.png,1,,,,,,,,,,,,,,,,,,,,,,,,,0,0,0,0,1,0,1,0,0,46,46,46,,,,,,,,,,,,,,,,,,,,,,,,,,,,,,,,,,,,,,,,,,,,,,,,,,,,,,,,,,,,,,,,,,,,,,,,931.0397818088531,None,,,,,,,,,,,,,,,,,,,,,,,,,,,,,,,,,,,,,,929.6220679283142,None,930.6071288585663,None,1,1,930.6071288585663,None,,,,,0.32462000846862793,1000,001,01,2021_Nov_02_1513,task-switching-replication,2021.2.3,60.004177384327946,
2,48,experiment,01,standing,noswitch,incongruant,solid,square,yellow,stimuli/solid-rectangle.png,stimuli/yellow-square.png,2,,,,,,,,,,,,,,,,,,,,,,,,,0,0,0,0,1,0,1,0,0,47,47,47,,,,,,,,,,,,,,,,,,,,,,,,,,,,,,,,,,,,,,,,,,,,,,,,,,,,,,,,,,,,,,,,,,,,,,,,932.7452509403229,None,,,,,,,,,,,,,,,,,,,,,,,,,,,,,,,,,,,,,,931.26868891716,None,932.2535729408264,None,2,1,932.2535729408264,None,,,,,0.38036584854125977,1000,001,01,2021_Nov_02_1513,task-switching-replication,2021.2.3,60.004177384327946,
2,49,experiment,01,standing,noswitch,congruant,solid,triangle,yellow,stimuli/solid-rectangle.png,stimuli/yellow-triangle.png,2,,,,,,,,,,,,,,,,,,,,,,,,,0,0,0,0,1,0,1,0,0,48,48,48,,,,,,,,,,,,,,,,,,,,,,,,,,,,,,,,,,,,,,,,,,,,,,,,,,,,,,,,,,,,,,,,,,,,,,,,934.6856489181519,None,,,,,,,,,,,,,,,,,,,,,,,,,,,,,,,,,,,,,,932.9738819599152,None,933.9574098587036,None,2,1,933.9574098587036,None,,,,,0.6074721813201904,1000,001,01,2021_Nov_02_1513,task-switching-replication,2021.2.3,60.004177384327946,
,,,01,,,,,,,,,,,,,,,,,,,,,,,,,,,,,,,,,,0,0,0,0,1,0,1,0,,,,,,,,,,,,,,,,,,,,,,,,,,,,,,,,,,,,,,,,,,,,,,,,,,,,,,,,,,,,,,,,,,,,,,,,,,,,,,,,,,,,,,,,,,,,,,,,,,,,,,,,,,,,,,,,,,,,,,,,,,,,,,,,1000,001,01,2021_Nov_02_1513,task-switching-replication,2021.2.3,60.004177384327946,
3,1,experiment,01,standing,buffer,buffer,dashed,square,blue,stimuli/dashed-rectangle.png,stimuli/blue-square.png,2,,,,,,,,,,,,,,,,,,,,,,,,,0,0,0,0,2,0,2,0,0,0,0,0,,,,,,,,,,,,,,,,,,,,,,,,,,,,,,,,,,,,,,,,,,,,,,,,,,,,,,,,,,,,,,,,,,,,,,,,951.9548089504242,None,,,,,,,,,,,,,,,,,,,,,,,,,,934.9164478778839,None,2,4.571582078933716,934.9164478778839,None,939.6012449264526,None,2,10.358551979064941,939.6012449264526,None,950.1233699321747,None,951.1081368923187,None,2,1,951.1081368923187,None,,,,,0.7047181129455566,1000,001,01,2021_Nov_02_1513,task-switching-replication,2021.2.3,60.004177384327946,
3,2,experiment,01,standing,switch,congruant,solid,square,yellow,stimuli/solid-rectangle.png,stimuli/yellow-square.png,2,,,,,,,,,,,,,,,,,,,,,,,,,0,0,0,0,2,0,2,0,0,1,1,1,,,,,,,,,,,,,,,,,,,,,,,,,,,,,,,,,,,,,,,,,,,,,,,,,,,,,,,,,,,,,,,,,,,,,,,,954.1925740242004,None,,,,,,,,,,,,,,,,,,,,,,,,,,,,,,,,,,,,,,952.1839168071747,None,953.1685898303986,None,2,1,953.1685898303986,None,,,,,0.8993690013885498,1000,001,01,2021_Nov_02_1513,task-switching-replication,2021.2.3,60.004177384327946,
3,3,experiment,01,standing,switch,congruant,dashed,square,yellow,stimuli/dashed-rectangle.png,stimuli/yellow-square.png,2,,,,,,,,,,,,,,,,,,,,,,,,,0,0,0,0,2,0,2,0,0,2,2,2,,,,,,,,,,,,,,,,,,,,,,,,,,,,,,,,,,,,,,,,,,,,,,,,,,,,,,,,,,,,,,,,,,,,,,,,956.5464508533478,None,,,,,,,,,,,,,,,,,,,,,,,,,,,,,,,,,,,,,,954.4212639331818,None,955.4050259590149,None,2,1,955.4050259590149,None,,,,,1.0378429889678955,1000,001,01,2021_Nov_02_1513,task-switching-replication,2021.2.3,60.004177384327946,
3,4,experiment,01,standing,switch,incongruant,solid,square,blue,stimuli/solid-rectangle.png,stimuli/blue-square.png,1,,,,,,,,,,,,,,,,,,,,,,,,,0,0,0,0,2,0,2,0,0,3,3,3,,,,,,,,,,,,,,,,,,,,,,,,,,,,,,,,,,,,,,,,,,,,,,,,,,,,,,,,,,,,,,,,,,,,,,,,958.250540971756,None,,,,,,,,,,,,,,,,,,,,,,,,,,,,,,,,,,,,,,956.7752709388733,None,957.7586069107056,None,1,1,957.7586069107056,None,,,,,0.35807108879089355,1000,001,01,2021_Nov_02_1513,task-switching-replication,2021.2.3,60.004177384327946,
3,5,experiment,01,standing,switch,incongruant,dashed,square,blue,stimuli/dashed-rectangle.png,stimuli/blue-square.png,2,,,,,,,,,,,,,,,,,,,,,,,,,0,0,0,0,2,0,2,0,0,4,4,4,,,,,,,,,,,,,,,,,,,,,,,,,,,,,,,,,,,,,,,,,,,,,,,,,,,,,,,,,,,,,,,,,,,,,,,,960.1325109004974,None,,,,,,,,,,,,,,,,,,,,,,,,,,,,,,,,,,,,,,958.4791469573975,None,959.4635968208313,None,2,1,959.4635968208313,None,,,,,0.570673942565918,1000,001,01,2021_Nov_02_1513,task-switching-replication,2021.2.3,60.004177384327946,
3,6,experiment,01,standing,noswitch,incongruant,dashed,triangle,blue,stimuli/dashed-rectangle.png,stimuli/blue-triangle.png,1,,,,,,,,,,,,,,,,,,,,,,,,,0,0,0,0,2,0,2,0,0,5,5,5,,,,,,,,,,,,,,,,,,,,,,,,,,,,,,,,,,,,,,,,,,,,,,,,,,,,,,,,,,,,,,,,,,,,,,,,961.8997318744659,None,,,,,,,,,,,,,,,,,,,,,,,,,,,,,,,,,,,,,,960.3617899417877,None,961.347158908844,None,1,1,961.347158908844,None,,,,,0.4137759208679199,1000,001,01,2021_Nov_02_1513,task-switching-replication,2021.2.3,60.004177384327946,
3,7,experiment,01,standing,noswitch,congruant,dashed,triangle,yellow,stimuli/dashed-rectangle.png,stimuli/yellow-triangle.png,1,,,,,,,,,,,,,,,,,,,,,,,,,0,0,0,0,2,0,2,0,0,6,6,6,,,,,,,,,,,,,,,,,,,,,,,,,,,,,,,,,,,,,,,,,,,,,,,,,,,,,,,,,,,,,,,,,,,,,,,,963.8432378768921,None,,,,,,,,,,,,,,,,,,,,,,,,,,,,,,,,,,,,,,962.128525018692,None,963.1147949695587,None,1,1,963.1147949695587,None,,,,,0.5989940166473389,1000,001,01,2021_Nov_02_1513,task-switching-replication,2021.2.3,60.004177384327946,
3,8,experiment,01,standing,switch,congruant,solid,triangle,blue,stimuli/solid-rectangle.png,stimuli/blue-triangle.png,1,,,,,,,,,,,,,,,,,,,,,,,,,0,0,0,0,2,0,2,0,0,7,7,7,,,,,,,,,,,,,,,,,,,,,,,,,,,,,,,,,,,,,,,,,,,,,,,,,,,,,,,,,,,,,,,,,,,,,,,,965.9021439552307,None,,,,,,,,,,,,,,,,,,,,,,,,,,,,,,,,,,,,,,964.0720648765564,None,965.0563898086548,None,1,1,965.0563898086548,None,,,,,0.7532281875610352,1000,001,01,2021_Nov_02_1513,task-switching-replication,2021.2.3,60.004177384327946,
3,9,experiment,01,standing,noswitch,incongruant,solid,square,yellow,stimuli/solid-rectangle.png,stimuli/yellow-square.png,2,,,,,,,,,,,,,,,,,,,,,,,,,0,0,0,0,2,0,2,0,0,8,8,8,,,,,,,,,,,,,,,,,,,,,,,,,,,,,,,,,,,,,,,,,,,,,,,,,,,,,,,,,,,,,,,,,,,,,,,,967.5477039813995,None,,,,,,,,,,,,,,,,,,,,,,,,,,,,,,,,,,,,,,966.1308829784393,None,967.1148648262024,None,2,1,967.1148648262024,None,,,,,0.31678199768066406,1000,001,01,2021_Nov_02_1513,task-switching-replication,2021.2.3,60.004177384327946,
3,10,experiment,01,standing,switch,incongruant,dashed,triangle,blue,stimuli/dashed-rectangle.png,stimuli/blue-triangle.png,1,,,,,,,,,,,,,,,,,,,,,,,,,0,0,0,0,2,0,2,0,0,9,9,9,,,,,,,,,,,,,,,,,,,,,,,,,,,,,,,,,,,,,,,,,,,,,,,,,,,,,,,,,,,,,,,,,,,,,,,,969.2531728744507,None,,,,,,,,,,,,,,,,,,,,,,,,,,,,,,,,,,,,,,967.776960849762,None,968.7612998485565,None,1,1,968.7612998485565,None,,,,,0.3684999942779541,1000,001,01,2021_Nov_02_1513,task-switching-replication,2021.2.3,60.004177384327946,
3,11,experiment,01,standing,noswitch,congruant,dashed,triangle,yellow,stimuli/dashed-rectangle.png,stimuli/yellow-triangle.png,1,,,,,,,,,,,,,,,,,,,,,,,,,0,0,0,0,2,0,2,0,0,10,10,10,,,,,,,,,,,,,,,,,,,,,,,,,,,,,,,,,,,,,,,,,,,,,,,,,,,,,,,,,,,,,,,,,,,,,,,,971.0184288024902,None,,,,,,,,,,,,,,,,,,,,,,,,,,,,,,,,,,,,,,969.4824018478394,None,970.4673910140991,None,1,1,970.4673910140991,None,,,,,0.40536999702453613,1000,001,01,2021_Nov_02_1513,task-switching-replication,2021.2.3,60.004177384327946,
3,12,experiment,01,standing,noswitch,congruant,dashed,triangle,yellow,stimuli/dashed-rectangle.png,stimuli/yellow-triangle.png,1,,,,,,,,,,,,,,,,,,,,,,,,,0,0,0,0,2,0,2,0,0,11,11,11,,,,,,,,,,,,,,,,,,,,,,,,,,,,,,,,,,,,,,,,,,,,,,,,,,,,,,,,,,,,,,,,,,,,,,,,972.72380900383,None,,,,,,,,,,,,,,,,,,,,,,,,,,,,,,,,,,,,,,971.247200012207,None,972.2318439483643,None,1,1,972.2318439483643,None,,,,,0.34476518630981445,1000,001,01,2021_Nov_02_1513,task-switching-replication,2021.2.3,60.004177384327946,
3,13,experiment,01,standing,switch,incongruant,solid,triangle,yellow,stimuli/solid-rectangle.png,stimuli/yellow-triangle.png,2,,,,,,,,,,,,,,,,,,,,,,,,,0,0,0,0,2,0,2,0,0,12,12,12,,,,,,,,,,,,,,,,,,,,,,,,,,,,,,,,,,,,,,,,,,,,,,,,,,,,,,,,,,,,,,,,,,,,,,,,974.8425447940826,None,,,,,,,,,,,,,,,,,,,,,,,,,,,,,,,,,,,,,,972.9524118900299,None,973.9373178482056,None,2,1,973.9373178482056,None,,,,,0.7891910076141357,1000,001,01,2021_Nov_02_1513,task-switching-replication,2021.2.3,60.004177384327946,
3,14,experiment,01,standing,noswitch,congruant,solid,square,yellow,stimuli/solid-rectangle.png,stimuli/yellow-square.png,2,,,,,,,,,,,,,,,,,,,,,,,,,0,0,0,0,2,0,2,0,0,13,13,13,0,0,0,0,,,,,,,,,,,,,,,,,,,,,,,,,,,,,,,,,,,,,,,,,,,,,,,,,,,,,,,,,,,,,,,,,,,,,,976.7588617801666,977.8144369125366,976.7907118797302,None,,,,,,,,,,,,,,,,,,,,,,,,,,,,,,,,,,975.0716698169708,None,976.0565309524536,None,1,0,976.0565309524536,None,,,,,0.5710499286651611,1000,001,01,2021_Nov_02_1513,task-switching-replication,2021.2.3,60.004177384327946,
3,14,experiment,01,standing,noswitch,congruant,solid,square,yellow,stimuli/solid-rectangle.png,stimuli/yellow-square.png,2,,,,,,,,,,,,,,,,,,,,,,,,,0,0,0,0,2,0,2,0,0,13,13,13,,,,,,,,,,,,,,,,,,,,,,,,,,,,,,,,,,,,,,,,,,,,,,,,,,,,,,,,,,,,,,,,,,,,,,,,981.883752822876,None,,,,,,,,,,,,,,,,,,,,,,,,,,,,,,,,,,,,,,,,,,,,,,,,,,,1000,001,01,2021_Nov_02_1513,task-switching-replication,2021.2.3,60.004177384327946,
3,15,experiment,01,standing,noswitch,congruant,solid,triangle,yellow,stimuli/solid-rectangle.png,stimuli/yellow-triangle.png,2,,,,,,,,,,,,,,,,,,,,,,,,,0,0,0,0,2,0,2,0,0,14,14,14,,,,,,,,,,,,,,,,,,,,,,,,,,,,,,,,,,,,,,,,,,,,,,,,,,,,,,,,,,,,,,,,,,,,,,,,984.081946849823,None,,,,,,,,,,,,,,,,,,,,,,,,,,,,,,,,,,,,,,982.0146579742432,None,982.9989650249481,None,2,1,982.9989650249481,None,,,,,0.9918289184570312,1000,001,01,2021_Nov_02_1513,task-switching-replication,2021.2.3,60.004177384327946,
3,16,experiment,01,standing,noswitch,incongruant,solid,triangle,blue,stimuli/solid-rectangle.png,stimuli/blue-triangle.png,1,,,,,,,,,,,,,,,,,,,,,,,,,0,0,0,0,2,0,2,0,0,15,15,15,,,,,,,,,,,,,,,,,,,,,,,,,,,,,,,,,,,,,,,,,,,,,,,,,,,,,,,,,,,,,,,,,,,,,,,,986.2579798698425,None,,,,,,,,,,,,,,,,,,,,,,,,,,,,,,,,,,,,,,984.3111188411713,None,985.2949268817902,None,1,1,985.2949268817902,None,,,,,0.8533871173858643,1000,001,01,2021_Nov_02_1513,task-switching-replication,2021.2.3,60.004177384327946,
3,17,experiment,01,standing,noswitch,congruant,solid,triangle,blue,stimuli/solid-rectangle.png,stimuli/blue-triangle.png,1,,,,,,,,,,,,,,,,,,,,,,,,,0,0,0,0,2,0,2,0,0,16,16,16,,,,,,,,,,,,,,,,,,,,,,,,,,,,,,,,,,,,,,,,,,,,,,,,,,,,,,,,,,,,,,,,,,,,,,,,988.0833899974823,None,,,,,,,,,,,,,,,,,,,,,,,,,,,,,,,,,,,,,,986.4895849227905,None,987.4739229679108,None,1,1,987.4739229679108,None,,,,,0.5075340270996094,1000,001,01,2021_Nov_02_1513,task-switching-replication,2021.2.3,60.004177384327946,
3,18,experiment,01,standing,switch,congruant,dashed,triangle,blue,stimuli/dashed-rectangle.png,stimuli/blue-triangle.png,1,,,,,,,,,,,,,,,,,,,,,,,,,0,0,0,0,2,0,2,0,0,17,17,17,,,,,,,,,,,,,,,,,,,,,,,,,,,,,,,,,,,,,,,,,,,,,,,,,,,,,,,,,,,,,,,,,,,,,,,,990.4380958080292,None,,,,,,,,,,,,,,,,,,,,,,,,,,,,,,,,,,,,,,988.3128969669342,None,989.2974979877472,None,1,1,989.2974979877472,None,,,,,0.996147871017456,1000,001,01,2021_Nov_02_1513,task-switching-replication,2021.2.3,60.004177384327946,
3,19,experiment,01,standing,switch,congruant,solid,square,blue,stimuli/solid-rectangle.png,stimuli/blue-square.png,1,,,,,,,,,,,,,,,,,,,,,,,,,0,0,0,0,2,0,2,0,0,18,18,18,,,,,,,,,,,,,,,,,,,,,,,,,,,,,,,,,,,,,,,,,,,,,,,,,,,,,,,,,,,,,,,,,,,,,,,,992.4377489089966,None,,,,,,,,,,,,,,,,,,,,,,,,,,,,,,,,,,,,,,990.666848897934,None,991.6511149406433,None,1,1,991.6511149406433,None,,,,,0.690500020980835,1000,001,01,2021_Nov_02_1513,task-switching-replication,2021.2.3,60.004177384327946,
3,20,experiment,01,standing,switch,incongruant,dashed,square,yellow,stimuli/dashed-rectangle.png,stimuli/yellow-square.png,2,,,,,,,,,,,,,,,,,,,,,,,,,0,0,0,0,2,0,2,0,0,19,19,19,,,,,,,,,,,,,,,,,,,,,,,,,,,,,,,,,,,,,,,,,,,,,,,,,,,,,,,,,,,,,,,,,,,,,,,,994.1436288356781,None,,,,,,,,,,,,,,,,,,,,,,,,,,,,,,,,,,,,,,992.6670169830322,None,993.6522808074951,None,2,1,993.6522808074951,None,,,,,0.40059804916381836,1000,001,01,2021_Nov_02_1513,task-switching-replication,2021.2.3,60.004177384327946,
3,21,experiment,01,standing,noswitch,congruant,dashed,square,yellow,stimuli/dashed-rectangle.png,stimuli/yellow-square.png,2,,,,,,,,,,,,,,,,,,,,,,,,,0,0,0,0,2,0,2,0,0,20,20,20,,,,,,,,,,,,,,,,,,,,,,,,,,,,,,,,,,,,,,,,,,,,,,,,,,,,,,,,,,,,,,,,,,,,,,,,995.9065008163452,None,,,,,,,,,,,,,,,,,,,,,,,,,,,,,,,,,,,,,,994.3730058670044,None,995.3562159538269,None,2,1,995.3562159538269,None,,,,,0.45651793479919434,1000,001,01,2021_Nov_02_1513,task-switching-replication,2021.2.3,60.004177384327946,
3,22,experiment,01,standing,switch,incongruant,solid,square,blue,stimuli/solid-rectangle.png,stimuli/blue-square.png,1,,,,,,,,,,,,,,,,,,,,,,,,,0,0,0,0,2,0,2,0,0,21,21,21,,,,,,,,,,,,,,,,,,,,,,,,,,,,,,,,,,,,,,,,,,,,,,,,,,,,,,,,,,,,,,,,,,,,,,,,997.7299239635468,None,,,,,,,,,,,,,,,,,,,,,,,,,,,,,,,,,,,,,,996.1352069377899,None,997.1186468601227,None,1,1,997.1186468601227,None,,,,,0.4527451992034912,1000,001,01,2021_Nov_02_1513,task-switching-replication,2021.2.3,60.004177384327946,
3,23,experiment,01,standing,noswitch,congruant,solid,square,blue,stimuli/solid-rectangle.png,stimuli/blue-square.png,1,,,,,,,,,,,,,,,,,,,,,,,,,0,0,0,0,2,0,2,0,0,22,22,22,,,,,,,,,,,,,,,,,,,,,,,,,,,,,,,,,,,,,,,,,,,,,,,,,,,,,,,,,,,,,,,,,,,,,,,,999.4952068328857,None,,,,,,,,,,,,,,,,,,,,,,,,,,,,,,,,,,,,,,997.9592659473419,None,998.9441919326782,None,1,1,998.9441919326782,None,,,,,0.4345059394836426,1000,001,01,2021_Nov_02_1513,task-switching-replication,2021.2.3,60.004177384327946,
3,24,experiment,01,standing,noswitch,congruant,solid,square,blue,stimuli/solid-rectangle.png,stimuli/blue-square.png,1,,,,,,,,,,,,,,,,,,,,,,,,,0,0,0,0,2,0,2,0,0,23,23,23,,,,,,,,,,,,,,,,,,,,,,,,,,,,,,,,,,,,,,,,,,,,,,,,,,,,,,,,,,,,,,,,,,,,,,,,1001.2607958316803,None,,,,,,,,,,,,,,,,,,,,,,,,,,,,,,,,,,,,,,999.7246170043945,None,1000.7099528312683,None,1,1,1000.7099528312683,None,,,,,0.44750189781188965,1000,001,01,2021_Nov_02_1513,task-switching-replication,2021.2.3,60.004177384327946,
3,25,experiment,01,standing,switch,congruant,dashed,triangle,yellow,stimuli/dashed-rectangle.png,stimuli/yellow-triangle.png,1,,,,,,,,,,,,,,,,,,,,,,,,,0,0,0,0,2,0,2,0,0,24,24,24,,,,,,,,,,,,,,,,,,,,,,,,,,,,,,,,,,,,,,,,,,,,,,,,,,,,,,,,,,,,,,,,,,,,,,,,1003.556813955307,None,,,,,,,,,,,,,,,,,,,,,,,,,,,,,,,,,,,,,,1001.4897630214691,None,1002.4744908809662,None,1,1,1002.4744908809662,None,,,,,0.9400949478149414,1000,001,01,2021_Nov_02_1513,task-switching-replication,2021.2.3,60.004177384327946,
3,26,experiment,01,standing,noswitch,congruant,dashed,triangle,yellow,stimuli/dashed-rectangle.png,stimuli/yellow-triangle.png,1,,,,,,,,,,,,,,,,,,,,,,,,,0,0,0,0,2,0,2,0,0,25,25,25,,,,,,,,,,,,,,,,,,,,,,,,,,,,,,,,,,,,,,,,,,,,,,,,,,,,,,,,,,,,,,,,,,,,,,,,1005.4431238174438,None,,,,,,,,,,,,,,,,,,,,,,,,,,,,,,,,,,,,,,1003.7879889011383,None,1004.7738869190216,None,1,1,1004.7738869190216,None,,,,,0.5385470390319824,1000,001,01,2021_Nov_02_1513,task-switching-replication,2021.2.3,60.004177384327946,
3,27,experiment,01,standing,noswitch,incongruant,dashed,square,yellow,stimuli/dashed-rectangle.png,stimuli/yellow-square.png,2,,,,,,,,,,,,,,,,,,,,,,,,,0,0,0,0,2,0,2,0,0,26,26,26,,,,,,,,,,,,,,,,,,,,,,,,,,,,,,,,,,,,,,,,,,,,,,,,,,,,,,,,,,,,,,,,,,,,,,,,1007.5030210018158,None,,,,,,,,,,,,,,,,,,,,,,,,,,,,,,,,,,,,,,1005.6722419261932,None,1006.6575329303741,None,2,1,1006.6575329303741,None,,,,,0.7388429641723633,1000,001,01,2021_Nov_02_1513,task-switching-replication,2021.2.3,60.004177384327946,
3,28,experiment,01,standing,switch,congruant,solid,triangle,yellow,stimuli/solid-rectangle.png,stimuli/yellow-triangle.png,2,,,,,,,,,,,,,,,,,,,,,,,,,0,0,0,0,2,0,2,0,0,27,27,27,0,0,0,0,,,,,,,,,,,,,,,,,,,,,,,,,,,,,,,,,,,,,,,,,,,,,,,,,,,,,,,,,,,,,,,,,,,,,,1009.5366139411926,1010.5599110126495,1009.568764925003,None,,,,,,,,,,,,,,,,,,,,,,,,,,,,,,,,,,1007.7316489219666,None,1008.7174019813538,None,1,0,1008.7174019813538,None,,,,,0.712975025177002,1000,001,01,2021_Nov_02_1513,task-switching-replication,2021.2.3,60.004177384327946,
3,28,experiment,01,standing,switch,congruant,solid,triangle,yellow,stimuli/solid-rectangle.png,stimuli/yellow-triangle.png,2,,,,,,,,,,,,,,,,,,,,,,,,,0,0,0,0,2,0,2,0,0,27,27,27,,,,,,,,,,,,,,,,,,,,,,,,,,,,,,,,,,,,,,,,,,,,,,,,,,,,,,,,,,,,,,,,,,,,,,,,1014.5993368625641,None,,,,,,,,,,,,,,,,,,,,,,,,,,,,,,,,,,,,,,,,,,,,,,,,,,,1000,001,01,2021_Nov_02_1513,task-switching-replication,2021.2.3,60.004177384327946,
3,29,experiment,01,standing,noswitch,incongruant,solid,triangle,blue,stimuli/solid-rectangle.png,stimuli/blue-triangle.png,1,,,,,,,,,,,,,,,,,,,,,,,,,0,0,0,0,2,0,2,0,0,28,28,28,,,,,,,,,,,,,,,,,,,,,,,,,,,,,,,,,,,,,,,,,,,,,,,,,,,,,,,,,,,,,,,,,,,,,,,,1016.6855909824371,None,,,,,,,,,,,,,,,,,,,,,,,,,,,,,,,,,,,,,,1014.7967798709869,None,1015.7812328338623,None,1,1,1015.7812328338623,None,,,,,0.796720027923584,1000,001,01,2021_Nov_02_1513,task-switching-replication,2021.2.3,60.004177384327946,
