blockNum,trialNum,trialType,condition,posture,switchTrialType,congruantTrialType,cueType,shapeType,shapeColor,cueFileName,stimuliFileName,correctAnswer,untimedTrials.thisRepN,untimedTrials.thisTrialN,untimedTrials.thisN,untimedTrials.thisIndex,selectSolid1.thisRepN,selectSolid1.thisTrialN,selectSolid1.thisN,selectSolid1.thisIndex,selectDashed1.thisRepN,selectDashed1.thisTrialN,selectDashed1.thisN,selectDashed1.thisIndex,timedTrials.thisRepN,timedTrials.thisTrialN,timedTrials.thisN,timedTrials.thisIndex,selectSolid2.thisRepN,selectSolid2.thisTrialN,selectSolid2.thisN,selectSolid2.thisIndex,selectDashed2.thisRepN,selectDashed2.thisTrialN,selectDashed2.thisN,selectDashed2.thisIndex,postures.thisRepN,postures.thisTrialN,postures.thisN,postures.thisIndex,blocks.thisRepN,blocks.thisTrialN,blocks.thisN,blocks.thisIndex,trials.thisRepN,trials.thisTrialN,trials.thisN,trials.thisIndex,selectSolid.thisRepN,selectSolid.thisTrialN,selectSolid.thisN,selectSolid.thisIndex,selectDashed.thisRepN,selectDashed.thisTrialN,selectDashed.thisN,selectDashed.thisIndex,text_3.started,text_3.stopped,key_resp_2.keys,key_resp_2.rt,key_resp_2.started,key_resp_2.stopped,image_4.started,image_4.stopped,key_resp_4.keys,key_resp_4.rt,key_resp_4.started,key_resp_4.stopped,image_5.started,image_5.stopped,key_resp_5.keys,key_resp_5.rt,key_resp_5.started,key_resp_5.stopped,image_6.started,image_6.stopped,key_resp_6.keys,key_resp_6.rt,key_resp_6.started,key_resp_6.stopped,image_7.started,image_7.stopped,key_resp_7.keys,key_resp_7.rt,key_resp_7.started,key_resp_7.stopped,image_8.started,image_8.stopped,key_resp_8.keys,key_resp_8.rt,key_resp_8.started,key_resp_8.stopped,image_9.started,image_9.stopped,key_resp_9.keys,key_resp_9.rt,key_resp_9.started,key_resp_9.stopped,image_10.started,image_10.stopped,key_resp_10.keys,key_resp_10.rt,key_resp_10.started,key_resp_10.stopped,image_11.started,image_11.stopped,key_resp_11.keys,key_resp_11.rt,key_resp_11.started,key_resp_11.stopped,cue_untimed_image.started,cue_untimed_image.stopped,stimuli_untimed_image.started,stimuli_untimed_image.stopped,untimed_resp.keys,untimed_resp.corr,untimed_resp.rt,untimed_resp.started,untimed_resp.stopped,sound_2.started,sound_2.stopped,image_3.started,image_3.stopped,text_2.started,text_2.stopped,sound_1.started,sound_1.stopped,image_2.started,image_2.stopped,image_12.started,image_12.stopped,key_resp_12.keys,key_resp_12.rt,key_resp_12.started,key_resp_12.stopped,image_13.started,image_13.stopped,key_resp_13.keys,key_resp_13.rt,key_resp_13.started,key_resp_13.stopped,cue_timed_image.started,cue_timed_image.stopped,stimuli_timed_image.started,stimuli_timed_image.stopped,timed_resp.keys,timed_resp.corr,timed_resp.started,timed_resp.stopped,timed_resp.rt,image.started,image.stopped,key_response.keys,key_response.rt,key_response.started,key_response.stopped,text.started,text.stopped,key_resp.keys,key_resp.rt,key_resp.started,key_resp.stopped,cue_image.started,cue_image.stopped,stimuli_image.started,stimuli_image.stopped,exp_resp.keys,exp_resp.corr,exp_resp.rt,exp_resp.started,exp_resp.stopped,participant,session,condition,date,expName,psychopyVersion,frameRate,
,,,02,,,,,,,,,,,,,,,,,,,,,,,,,,,,,,,,,,,,,,,,,,,,,,,,,,,,,,19.505713939666748,None,2,491.284569978714,19.505713939666748,None,,,,,,,,,,,,,,,,,,,,,,,,,,,,,,,,,,,,,,,,,,,,,,,,,,,,,,,,,,,,,,,,,,,,,,,,,,,,,,,,,,,,,,,,,,,,,,,,,,,,,,,,,,,,,,1000,001,02,2021_Nov_02_1620,task-switching-replication,2021.2.3,60.00349065106365,
,,,02,,,,,,,,,,,,,,,,,,,,,,,,,,,,,,,,,,,,,,,,,,,,,,,,,,,,,,,,,,,,510.9140181541443,None,2,8.487807035446167,510.9140181541443,None,,,,,,,,,,,,,,,,,,,,,,,,,,,,,,,,,,,,,,,,,,,,,,,,,,,,,,,,,,,,,,,,,,,,,,,,,,,,,,,,,,,,,,,,,,,,,,,,,,,,,,,,1000,001,02,2021_Nov_02_1620,task-switching-replication,2021.2.3,60.00349065106365,
,,,02,,,,,,,,,,,,,,,,,,,,,,,,,,,,,,,,,,,,,,,,,,,,,,,,,,,,,,,,,,,,,,,,,,519.4705319404602,None,1,13.577225923538208,519.4705319404602,None,,,,,,,,,,,,,,,,,,,,,,,,,,,,,,,,,,,,,,,,,,,,,,,,,,,,,,,,,,,,,,,,,,,,,,,,,,,,,,,,,,,,,,,,,,,,,,,,,,1000,001,02,2021_Nov_02_1620,task-switching-replication,2021.2.3,60.00349065106365,
,,,02,,,,,,,,,,,,,,,,,,,,,,,,,,,,,,,,,,,,,,,,,,,,,,,,,,,,,,,,,,,,,,,,,,,,,,,,533.1339411735535,None,2,5.97379994392395,533.1339411735535,None,,,,,,,,,,,,,,,,,,,,,,,,,,,,,,,,,,,,,,,,,,,,,,,,,,,,,,,,,,,,,,,,,,,,,,,,,,,,,,,,,,,,,,,,,,,,1000,001,02,2021_Nov_02_1620,task-switching-replication,2021.2.3,60.00349065106365,
,,,02,,,,,,,,,,,,,,,,,,,,,,,,,,,,,,,,,,,,,,,,,,,,,,,,,,,,,,,,,,,,,,,,,,,,,,,,,,,,,,539.2035319805145,None,2,1.3843071460723877,539.2035319805145,None,,,,,,,,,,,,,,,,,,,,,,,,,,,,,,,,,,,,,,,,,,,,,,,,,,,,,,,,,,,,,,,,,,,,,,,,,,,,,,,,,,,,,,1000,001,02,2021_Nov_02_1620,task-switching-replication,2021.2.3,60.00349065106365,
,,,02,,,,,,,,,,,,,,,,,,,,,,,,,,,,,,,,,,,,,,,,,,,,,,,,,,,,,,,,,,,,,,,,,,,,,,,,,,,,,,,,,,,,540.7142241001129,None,1,543.1228799819946,540.7142241001129,None,,,,,,,,,,,,,,,,,,,,,,,,,,,,,,,,,,,,,,,,,,,,,,,,,,,,,,,,,,,,,,,,,,,,,,,,,,,,,,,,1000,001,02,2021_Nov_02_1620,task-switching-replication,2021.2.3,60.00349065106365,
,,,02,,,,,,,,,,,,,,,,,,,,,,,,,,,,,,,,,,,,,,,,,,,,,,,,,,,,,,,,,,,,,,,,,,,,,,,,,,,,,,,,,,,,,,,,,,1083.9224591255188,None,2,1.0116620063781738,1083.9224591255188,None,,,,,,,,,,,,,,,,,,,,,,,,,,,,,,,,,,,,,,,,,,,,,,,,,,,,,,,,,,,,,,,,,,,,,,,,,,1000,001,02,2021_Nov_02_1620,task-switching-replication,2021.2.3,60.00349065106365,
,,,02,,,,,,,,,,,,,,,,,,,,,,,,,,,,,,,,,,,,,,,,,,,,,,,,,,,,,,,,,,,,,,,,,,,,,,,,,,,,,,,,,,,,,,,,,,,,,,,,1085.008553981781,None,2,1.8885600566864014,1085.008553981781,None,,,,,,,,,,,,,,,,,,,,,,,,,,,,,,,,,,,,,,,,,,,,,,,,,,,,,,,,,,,,,,,,,,,,1000,001,02,2021_Nov_02_1620,task-switching-replication,2021.2.3,60.00349065106365,
,,,02,,,,,,,,,,,,,,,,,,,,,,,,,,,,,,,,,,,,,,,,,,,,,,,,,,,,,,,,,,,,,,,,,,,,,,,,,,,,,,,,,,,,,,,,,,,,,,,,,,,,,,1087.004795074463,None,2,37.76317596435547,1087.004795074463,None,,,,,,,,,,,,,,,,,,,,,,,,,,,,,,,,,,,,,,,,,,,,,,,,,,,,,,,,,,,,,,1000,001,02,2021_Nov_02_1620,task-switching-replication,2021.2.3,60.00349065106365,
1,1,untimed,02,standing,buffer,buffer,dashed,square,blue,stimuli/dashed-rectangle.png,stimuli/blue-square.png,1,0,0,0,0,,,,,0,0,0,0,,,,,,,,,,,,,,,,,,,,,,,,,,,,,,,,,,,,,,,,,,,,,,,,,,,,,,,,,,,,,,,,,,,,,,,,,,,,,,,,,,,,,,,1124.8776280879974,None,1125.8779621124268,None,2,0,5.215013027191162,1125.8779621124268,None,1131.1851509809494,1132.2028391361237,1131.2191560268402,None,,,,,,,,,,,,,,,,,,,,,,,,,,,,,,,,,,,,,,,,,,,,,,,,,1000,001,02,2021_Nov_02_1620,task-switching-replication,2021.2.3,60.00349065106365,
1,1,untimed,02,standing,buffer,buffer,dashed,square,blue,stimuli/dashed-rectangle.png,stimuli/blue-square.png,1,0,0,0,0,,,,,,,,,,,,,,,,,,,,,,,,,,,,,,,,,,,,,,,,,,,,,,,,,,,,,,,,,,,,,,,,,,,,,,,,,,,,,,,,,,,,,,,,,,,,,,,,,,,,,,,,,,,,1136.2423560619354,None,,,,,,,,,,,,,,,,,,,,,,,,,,,,,,,,,,,,,,,,,,,,,,,1000,001,02,2021_Nov_02_1620,task-switching-replication,2021.2.3,60.00349065106365,
1,2,untimed,02,standing,switch,congruant,solid,triangle,blue,stimuli/solid-rectangle.png,stimuli/blue-triangle.png,1,0,1,1,1,0,0,0,0,,,,,,,,,,,,,,,,,,,,,,,,,,,,,,,,,,,,,,,,,,,,,,,,,,,,,,,,,,,,,,,,,,,,,,,,,,,,,,,,,,,,,,,,,,,1136.440024137497,None,1137.441612958908,None,2,0,3.893324851989746,1137.441612958908,None,,,,,,,1141.4433740377426,1142.493455171585,1141.476065158844,None,,,,,,,,,,,,,,,,,,,,,,,,,,,,,,,,,,,,,,,,,,,1000,001,02,2021_Nov_02_1620,task-switching-replication,2021.2.3,60.00349065106365,
1,2,untimed,02,standing,switch,congruant,solid,triangle,blue,stimuli/solid-rectangle.png,stimuli/blue-triangle.png,1,0,1,1,1,,,,,,,,,,,,,,,,,,,,,,,,,,,,,,,,,,,,,,,,,,,,,,,,,,,,,,,,,,,,,,,,,,,,,,,,,,,,,,,,,,,,,,,,,,,,,,,,,,,,,,,,,,,,1146.4941790103912,None,,,,,,,,,,,,,,,,,,,,,,,,,,,,,,,,,,,,,,,,,,,,,,,1000,001,02,2021_Nov_02_1620,task-switching-replication,2021.2.3,60.00349065106365,
1,3,untimed,02,standing,noswitch,incongruant,solid,square,yellow,stimuli/solid-rectangle.png,stimuli/yellow-square.png,2,0,2,2,2,,,,,,,,,,,,,,,,,,,,,,,,,,,,,,,,,,,,,,,,,,,,,,,,,,,,,,,,,,,,,,,,,,,,,,,,,,,,,,,,,,,,,,,,,,,,,,,1146.6920659542084,None,1147.6927211284637,None,2,1,3.4912078380584717,1147.6927211284637,None,,,,,1151.3215520381927,None,,,,,,,,,,,,,,,,,,,,,,,,,,,,,,,,,,,,,,,,,,,,,,,1000,001,02,2021_Nov_02_1620,task-switching-replication,2021.2.3,60.00349065106365,
1,4,untimed,02,standing,noswitch,congruant,solid,triangle,yellow,stimuli/solid-rectangle.png,stimuli/yellow-triangle.png,2,0,3,3,3,0,0,0,0,,,,,,,,,,,,,,,,,,,,,,,,,,,,,,,,,,,,,,,,,,,,,,,,,,,,,,,,,,,,,,,,,,,,,,,,,,,,,,,,,,,,,,,,,,,1151.5509819984436,None,1152.5517160892487,None,1,0,2.0292539596557617,1152.5517160892487,None,,,,,,,1154.6931020021439,1155.7442791461945,1154.7254111766815,None,,,,,,,,,,,,,,,,,,,,,,,,,,,,,,,,,,,,,,,,,,,1000,001,02,2021_Nov_02_1620,task-switching-replication,2021.2.3,60.00349065106365,
1,4,untimed,02,standing,noswitch,congruant,solid,triangle,yellow,stimuli/solid-rectangle.png,stimuli/yellow-triangle.png,2,0,3,3,3,,,,,,,,,,,,,,,,,,,,,,,,,,,,,,,,,,,,,,,,,,,,,,,,,,,,,,,,,,,,,,,,,,,,,,,,,,,,,,,,,,,,,,,,,,,,,,,,,,,,,,,,,,,,1159.7454240322113,None,,,,,,,,,,,,,,,,,,,,,,,,,,,,,,,,,,,,,,,,,,,,,,,1000,001,02,2021_Nov_02_1620,task-switching-replication,2021.2.3,60.00349065106365,
1,5,untimed,02,standing,noswitch,congruant,solid,triangle,yellow,stimuli/solid-rectangle.png,stimuli/yellow-triangle.png,2,0,4,4,4,0,0,0,0,,,,,,,,,,,,,,,,,,,,,,,,,,,,,,,,,,,,,,,,,,,,,,,,,,,,,,,,,,,,,,,,,,,,,,,,,,,,,,,,,,,,,,,,,,,1159.9423320293427,None,1160.942526102066,None,1,0,1.9052200317382812,1160.942526102066,None,,,,,,,1162.964033961296,1164.0155370235443,1162.9967150688171,None,,,,,,,,,,,,,,,,,,,,,,,,,,,,,,,,,,,,,,,,,,,1000,001,02,2021_Nov_02_1620,task-switching-replication,2021.2.3,60.00349065106365,
1,5,untimed,02,standing,noswitch,congruant,solid,triangle,yellow,stimuli/solid-rectangle.png,stimuli/yellow-triangle.png,2,0,4,4,4,,,,,,,,,,,,,,,,,,,,,,,,,,,,,,,,,,,,,,,,,,,,,,,,,,,,,,,,,,,,,,,,,,,,,,,,,,,,,,,,,,,,,,,,,,,,,,,,,,,,,,,,,,,,1168.0139830112457,None,,,,,,,,,,,,,,,,,,,,,,,,,,,,,,,,,,,,,,,,,,,,,,,1000,001,02,2021_Nov_02_1620,task-switching-replication,2021.2.3,60.00349065106365,
1,6,untimed,02,standing,switch,congruant,dashed,triangle,yellow,stimuli/dashed-rectangle.png,stimuli/yellow-triangle.png,2,0,5,5,5,,,,,,,,,,,,,,,,,,,,,,,,,,,,,,,,,,,,,,,,,,,,,,,,,,,,,,,,,,,,,,,,,,,,,,,,,,,,,,,,,,,,,,,,,,,,,,,1168.2107710838318,None,1169.2093770503998,None,2,1,1.880354881286621,1169.2093770503998,None,,,,,1171.1961059570312,None,,,,,,,,,,,,,,,,,,,,,,,,,,,,,,,,,,,,,,,,,,,,,,,1000,001,02,2021_Nov_02_1620,task-switching-replication,2021.2.3,60.00349065106365,
1,7,untimed,02,standing,noswitch,congruant,dashed,triangle,yellow,stimuli/dashed-rectangle.png,stimuli/yellow-triangle.png,2,0,6,6,6,,,,,,,,,,,,,,,,,,,,,,,,,,,,,,,,,,,,,,,,,,,,,,,,,,,,,,,,,,,,,,,,,,,,,,,,,,,,,,,,,,,,,,,,,,,,,,,1171.4252140522003,None,1172.4252791404724,None,2,1,1.6507079601287842,1172.4252791404724,None,,,,,1174.1760561466217,None,,,,,,,,,,,,,,,,,,,,,,,,,,,,,,,,,,,,,,,,,,,,,,,1000,001,02,2021_Nov_02_1620,task-switching-replication,2021.2.3,60.00349065106365,
1,8,untimed,02,standing,noswitch,incongruant,dashed,square,yellow,stimuli/dashed-rectangle.png,stimuli/yellow-square.png,1,0,7,7,7,,,,,0,0,0,0,,,,,,,,,,,,,,,,,,,,,,,,,,,,,,,,,,,,,,,,,,,,,,,,,,,,,,,,,,,,,,,,,,,,,,,,,,,,,,,,,,,,,,,1174.4052691459656,None,1175.4039170742035,None,2,0,1.243901014328003,1175.4039170742035,None,1176.7681790590286,1177.819743156433,1176.8013761043549,None,,,,,,,,,,,,,,,,,,,,,,,,,,,,,,,,,,,,,,,,,,,,,,,,,1000,001,02,2021_Nov_02_1620,task-switching-replication,2021.2.3,60.00349065106365,
1,8,untimed,02,standing,noswitch,incongruant,dashed,square,yellow,stimuli/dashed-rectangle.png,stimuli/yellow-square.png,1,0,7,7,7,,,,,,,,,,,,,,,,,,,,,,,,,,,,,,,,,,,,,,,,,,,,,,,,,,,,,,,,,,,,,,,,,,,,,,,,,,,,,,,,,,,,,,,,,,,,,,,,,,,,,,,,,,,,1181.818421125412,None,,,,,,,,,,,,,,,,,,,,,,,,,,,,,,,,,,,,,,,,,,,,,,,1000,001,02,2021_Nov_02_1620,task-switching-replication,2021.2.3,60.00349065106365,
1,9,untimed,02,standing,noswitch,congruant,dashed,square,blue,stimuli/dashed-rectangle.png,stimuli/blue-square.png,1,0,8,8,8,,,,,0,0,0,0,,,,,,,,,,,,,,,,,,,,,,,,,,,,,,,,,,,,,,,,,,,,,,,,,,,,,,,,,,,,,,,,,,,,,,,,,,,,,,,,,,,,,,,1182.015694141388,None,1183.0158240795135,None,2,0,1.1861190795898438,1183.0158240795135,None,1184.3185809850693,1185.3698539733887,1184.3514709472656,None,,,,,,,,,,,,,,,,,,,,,,,,,,,,,,,,,,,,,,,,,,,,,,,,,1000,001,02,2021_Nov_02_1620,task-switching-replication,2021.2.3,60.00349065106365,
1,9,untimed,02,standing,noswitch,congruant,dashed,square,blue,stimuli/dashed-rectangle.png,stimuli/blue-square.png,1,0,8,8,8,,,,,,,,,,,,,,,,,,,,,,,,,,,,,,,,,,,,,,,,,,,,,,,,,,,,,,,,,,,,,,,,,,,,,,,,,,,,,,,,,,,,,,,,,,,,,,,,,,,,,,,,,,,,1189.3699910640717,None,,,,,,,,,,,,,,,,,,,,,,,,,,,,,,,,,,,,,,,,,,,,,,,1000,001,02,2021_Nov_02_1620,task-switching-replication,2021.2.3,60.00349065106365,
1,10,untimed,02,standing,noswitch,incongruant,dashed,triangle,blue,stimuli/dashed-rectangle.png,stimuli/blue-triangle.png,2,0,9,9,9,,,,,,,,,,,,,,,,,,,,,,,,,,,,,,,,,,,,,,,,,,,,,,,,,,,,,,,,,,,,,,,,,,,,,,,,,,,,,,,,,,,,,,,,,,,,,,,1189.5673999786377,None,1190.56787109375,None,2,1,1.204030990600586,1190.56787109375,None,,,,,1191.8999481201172,None,,,,,,,,,,,,,,,,,,,,,,,,,,,,,,,,,,,,,,,,,,,,,,,1000,001,02,2021_Nov_02_1620,task-switching-replication,2021.2.3,60.00349065106365,
1,11,untimed,02,standing,switch,congruant,solid,square,yellow,stimuli/solid-rectangle.png,stimuli/yellow-square.png,2,0,10,10,10,,,,,,,,,,,,,,,,,,,,,,,,,,,,,,,,,,,,,,,,,,,,,,,,,,,,,,,,,,,,,,,,,,,,,,,,,,,,,,,,,,,,,,,,,,,,,,,1192.1295471191406,None,1193.1301410198212,None,2,1,1.8936219215393066,1193.1301410198212,None,,,,,1195.118714094162,None,,,,,,,,,,,,,,,,,,,,,,,,,,,,,,,,,,,,,,,,,,,,,,,1000,001,02,2021_Nov_02_1620,task-switching-replication,2021.2.3,60.00349065106365,
1,12,untimed,02,standing,noswitch,incongruant,solid,square,blue,stimuli/solid-rectangle.png,stimuli/blue-square.png,1,0,11,11,11,0,0,0,0,,,,,,,,,,,,,,,,,,,,,,,,,,,,,,,,,,,,,,,,,,,,,,,,,,,,,,,,,,,,,,,,,,,,,,,,,,,,,,,,,,,,,,,,,,,1195.347883939743,None,1196.3468890190125,None,2,0,0.962989091873169,1196.3468890190125,None,,,,,,,1197.4115570783615,1198.461881160736,1197.4443891048431,None,,,,,,,,,,,,,,,,,,,,,,,,,,,,,,,,,,,,,,,,,,,1000,001,02,2021_Nov_02_1620,task-switching-replication,2021.2.3,60.00349065106365,
1,12,untimed,02,standing,noswitch,incongruant,solid,square,blue,stimuli/solid-rectangle.png,stimuli/blue-square.png,1,0,11,11,11,,,,,,,,,,,,,,,,,,,,,,,,,,,,,,,,,,,,,,,,,,,,,,,,,,,,,,,,,,,,,,,,,,,,,,,,,,,,,,,,,,,,,,,,,,,,,,,,,,,,,,,,,,,,1202.4666659832,None,,,,,,,,,,,,,,,,,,,,,,,,,,,,,,,,,,,,,,,,,,,,,,,1000,001,02,2021_Nov_02_1620,task-switching-replication,2021.2.3,60.00349065106365,
,,,02,,,,,,,,,,,,,,,,,,,,,,,,,,,,,,,,,,,,,,,,,,,,,,,,,,,,,,,,,,,,,,,,,,,,,,,,,,,,,,,,,,,,,,,,,,,,,,,,,,,,,,,,,,,,,,,,,,,,,,,,,,,,,,,1202.664766073227,None,2,12.681931018829346,1202.664766073227,None,,,,,,,,,,,,,,,,,,,,,,,,,,,,,,,,,,,,,1000,001,02,2021_Nov_02_1620,task-switching-replication,2021.2.3,60.00349065106365,
,,,02,,,,,,,,,,,,,,,,,,,,,,,,,,,,,,,,,,,,,,,,,,,,,,,,,,,,,,,,,,,,,,,,,,,,,,,,,,,,,,,,,,,,,,,,,,,,,,,,,,,,,,,,,,,,,,,,,,,,,,,,,,,,,,,,,,,,,1215.4710111618042,None,2,27.647727012634277,1215.4710111618042,None,,,,,,,,,,,,,,,,,,,,,,,,,,,,,,,1000,001,02,2021_Nov_02_1620,task-switching-replication,2021.2.3,60.00349065106365,
1,1,timed,02,standing,buffer,buffer,solid,triangle,yellow,stimuli/solid-rectangle.png,stimuli/yellow-triangle.png,2,,,,,,,,,,,,,0,0,0,0,0,0,0,0,,,,,,,,,,,,,,,,,,,,,,,,,,,,,,,,,,,,,,,,,,,,,,,,,,,,,,,,,,,,,,,,,,,,,,,,,,,,,,,,,,,,,,,,,,,,,,1245.7781929492949,1246.7971200942993,1245.8094820976257,None,,,,,,,,,,,,,1243.2601079940796,None,1244.2448480129242,None,None,0,1244.2448480129242,None,,,,,,,,,,,,,,,,,,,,,,,1000,001,02,2021_Nov_02_1620,task-switching-replication,2021.2.3,60.00349065106365,
1,1,timed,02,standing,buffer,buffer,solid,triangle,yellow,stimuli/solid-rectangle.png,stimuli/yellow-triangle.png,2,,,,,,,,,,,,,0,0,0,0,,,,,,,,,,,,,,,,,,,,,,,,,,,,,,,,,,,,,,,,,,,,,,,,,,,,,,,,,,,,,,,,,,,,,,,,,,,,,,,,,,,,,,,,,,,,,,,,1250.8329591751099,None,,,,,,,,,,,,,,,,,,,,,,,,,,,,,,,,,,,,,,,,,,,,,,,1000,001,02,2021_Nov_02_1620,task-switching-replication,2021.2.3,60.00349065106365,
1,2,timed,02,standing,noswitch,congruant,solid,triangle,yellow,stimuli/solid-rectangle.png,stimuli/yellow-triangle.png,2,,,,,,,,,,,,,0,1,1,1,0,0,0,0,,,,,,,,,,,,,,,,,,,,,,,,,,,,,,,,,,,,,,,,,,,,,,,,,,,,,,,,,,,,,,,,,,,,,,,,,,,,,,,,,,,,,,,,,,,,,,1253.0088881254196,1254.0603051185608,1253.041514158249,None,,,,,,,,,,,,,1251.0294499397278,None,1252.0138731002808,None,1,0,1252.0138731002808,None,0.9026539325714111,,,,,,,,,,,,,,,,,,,,,,1000,001,02,2021_Nov_02_1620,task-switching-replication,2021.2.3,60.00349065106365,
1,2,timed,02,standing,noswitch,congruant,solid,triangle,yellow,stimuli/solid-rectangle.png,stimuli/yellow-triangle.png,2,,,,,,,,,,,,,0,1,1,1,,,,,,,,,,,,,,,,,,,,,,,,,,,,,,,,,,,,,,,,,,,,,,,,,,,,,,,,,,,,,,,,,,,,,,,,,,,,,,,,,,,,,,,,,,,,,,,,1258.064845085144,None,,,,,,,,,,,,,,,,,,,,,,,,,,,,,,,,,,,,,,,,,,,,,,,1000,001,02,2021_Nov_02_1620,task-switching-replication,2021.2.3,60.00349065106365,
1,3,timed,02,standing,switch,incongruant,dashed,square,yellow,stimuli/dashed-rectangle.png,stimuli/yellow-square.png,1,,,,,,,,,,,,,0,2,2,2,,,,,0,0,0,0,,,,,,,,,,,,,,,,,,,,,,,,,,,,,,,,,,,,,,,,,,,,,,,,,,,,,,,,,,,,,,,,,,,,,,,,,,,,,,,,,,,,1260.781443786621,1261.8315279483795,1260.812973022461,None,,,,,,,,,,,,,,,,,,,1258.261521100998,None,1259.2457311153412,None,None,0,1259.2457311153412,None,,,,,,,,,,,,,,,,,,,,,,,1000,001,02,2021_Nov_02_1620,task-switching-replication,2021.2.3,60.00349065106365,
1,3,timed,02,standing,switch,incongruant,dashed,square,yellow,stimuli/dashed-rectangle.png,stimuli/yellow-square.png,1,,,,,,,,,,,,,0,2,2,2,,,,,,,,,,,,,,,,,,,,,,,,,,,,,,,,,,,,,,,,,,,,,,,,,,,,,,,,,,,,,,,,,,,,,,,,,,,,,,,,,,,,,,,,,,,,,,,,1265.83824801445,None,,,,,,,,,,,,,,,,,,,,,,,,,,,,,,,,,,,,,,,,,,,,,,,1000,001,02,2021_Nov_02_1620,task-switching-replication,2021.2.3,60.00349065106365,
1,4,timed,02,standing,switch,congruant,solid,triangle,blue,stimuli/solid-rectangle.png,stimuli/blue-triangle.png,1,,,,,,,,,,,,,0,3,3,3,0,0,0,0,,,,,,,,,,,,,,,,,,,,,,,,,,,,,,,,,,,,,,,,,,,,,,,,,,,,,,,,,,,,,,,,,,,,,,,,,,,,,,,,,,,,,,,,,,,,,,1268.258728146553,1269.309249162674,1268.290596961975,None,,,,,,,,,,,,,1266.0373330116272,None,1267.023579120636,None,2,0,1267.023579120636,None,1.1291429996490479,,,,,,,,,,,,,,,,,,,,,,1000,001,02,2021_Nov_02_1620,task-switching-replication,2021.2.3,60.00349065106365,
1,4,timed,02,standing,switch,congruant,solid,triangle,blue,stimuli/solid-rectangle.png,stimuli/blue-triangle.png,1,,,,,,,,,,,,,0,3,3,3,,,,,,,,,,,,,,,,,,,,,,,,,,,,,,,,,,,,,,,,,,,,,,,,,,,,,,,,,,,,,,,,,,,,,,,,,,,,,,,,,,,,,,,,,,,,,,,,1273.3103160858154,None,,,,,,,,,,,,,,,,,,,,,,,,,,,,,,,,,,,,,,,,,,,,,,,1000,001,02,2021_Nov_02_1620,task-switching-replication,2021.2.3,60.00349065106365,
1,5,timed,02,standing,noswitch,incongruant,solid,square,yellow,stimuli/solid-rectangle.png,stimuli/yellow-square.png,2,,,,,,,,,,,,,0,4,4,4,0,0,0,0,,,,,,,,,,,,,,,,,,,,,,,,,,,,,,,,,,,,,,,,,,,,,,,,,,,,,,,,,,,,,,,,,,,,,,,,,,,,,,,,,,,,,,,,,,,,,,1276.0271718025206,1277.0471739768982,1276.058235168457,None,,,,,,,,,,,,,1273.5077950954437,None,1274.4918739795685,None,None,0,1274.4918739795685,None,,,,,,,,,,,,,,,,,,,,,,,1000,001,02,2021_Nov_02_1620,task-switching-replication,2021.2.3,60.00349065106365,
1,5,timed,02,standing,noswitch,incongruant,solid,square,yellow,stimuli/solid-rectangle.png,stimuli/yellow-square.png,2,,,,,,,,,,,,,0,4,4,4,,,,,,,,,,,,,,,,,,,,,,,,,,,,,,,,,,,,,,,,,,,,,,,,,,,,,,,,,,,,,,,,,,,,,,,,,,,,,,,,,,,,,,,,,,,,,,,,1281.0839710235596,None,,,,,,,,,,,,,,,,,,,,,,,,,,,,,,,,,,,,,,,,,,,,,,,1000,001,02,2021_Nov_02_1620,task-switching-replication,2021.2.3,60.00349065106365,
1,6,timed,02,standing,switch,incongruant,dashed,square,blue,stimuli/dashed-rectangle.png,stimuli/blue-square.png,1,,,,,,,,,,,,,0,5,5,5,,,,,0,0,0,0,,,,,,,,,,,,,,,,,,,,,,,,,,,,,,,,,,,,,,,,,,,,,,,,,,,,,,,,,,,,,,,,,,,,,,,,,,,,,,,,,,,,1283.8006808280943,1284.8212530612946,1283.8322291374207,None,,,,,,,,,,,,,,,,,,,1281.2808949947357,None,1282.2654631137848,None,None,0,1282.2654631137848,None,,,,,,,,,,,,,,,,,,,,,,,1000,001,02,2021_Nov_02_1620,task-switching-replication,2021.2.3,60.00349065106365,
1,6,timed,02,standing,switch,incongruant,dashed,square,blue,stimuli/dashed-rectangle.png,stimuli/blue-square.png,1,,,,,,,,,,,,,0,5,5,5,,,,,,,,,,,,,,,,,,,,,,,,,,,,,,,,,,,,,,,,,,,,,,,,,,,,,,,,,,,,,,,,,,,,,,,,,,,,,,,,,,,,,,,,,,,,,,,,1288.8569340705872,None,,,,,,,,,,,,,,,,,,,,,,,,,,,,,,,,,,,,,,,,,,,,,,,1000,001,02,2021_Nov_02_1620,task-switching-replication,2021.2.3,60.00349065106365,
1,7,timed,02,standing,switch,congruant,solid,square,blue,stimuli/solid-rectangle.png,stimuli/blue-square.png,1,,,,,,,,,,,,,0,6,6,6,0,0,0,0,,,,,,,,,,,,,,,,,,,,,,,,,,,,,,,,,,,,,,,,,,,,,,,,,,,,,,,,,,,,,,,,,,,,,,,,,,,,,,,,,,,,,,,,,,,,,,1291.5734838962553,1292.6234650611877,1291.6045680046082,None,,,,,,,,,,,,,1289.0533890724182,None,1290.038437128067,None,None,0,1290.038437128067,None,,,,,,,,,,,,,,,,,,,,,,,1000,001,02,2021_Nov_02_1620,task-switching-replication,2021.2.3,60.00349065106365,
1,7,timed,02,standing,switch,congruant,solid,square,blue,stimuli/solid-rectangle.png,stimuli/blue-square.png,1,,,,,,,,,,,,,0,6,6,6,,,,,,,,,,,,,,,,,,,,,,,,,,,,,,,,,,,,,,,,,,,,,,,,,,,,,,,,,,,,,,,,,,,,,,,,,,,,,,,,,,,,,,,,,,,,,,,,1296.626935005188,None,,,,,,,,,,,,,,,,,,,,,,,,,,,,,,,,,,,,,,,,,,,,,,,1000,001,02,2021_Nov_02_1620,task-switching-replication,2021.2.3,60.00349065106365,
1,8,timed,02,standing,switch,incongruant,dashed,triangle,blue,stimuli/dashed-rectangle.png,stimuli/blue-triangle.png,2,,,,,,,,,,,,,0,7,7,7,,,,,0,0,0,0,,,,,,,,,,,,,,,,,,,,,,,,,,,,,,,,,,,,,,,,,,,,,,,,,,,,,,,,,,,,,,,,,,,,,,,,,,,,,,,,,,,,1299.3430499553679,1300.3928480148315,1299.3745031356812,None,,,,,,,,,,,,,,,,,,,1296.823606967926,None,1297.8083100318909,None,None,0,1297.8083100318909,None,,,,,,,,,,,,,,,,,,,,,,,1000,001,02,2021_Nov_02_1620,task-switching-replication,2021.2.3,60.00349065106365,
1,8,timed,02,standing,switch,incongruant,dashed,triangle,blue,stimuli/dashed-rectangle.png,stimuli/blue-triangle.png,2,,,,,,,,,,,,,0,7,7,7,,,,,,,,,,,,,,,,,,,,,,,,,,,,,,,,,,,,,,,,,,,,,,,,,,,,,,,,,,,,,,,,,,,,,,,,,,,,,,,,,,,,,,,,,,,,,,,,1304.3910019397736,None,,,,,,,,,,,,,,,,,,,,,,,,,,,,,,,,,,,,,,,,,,,,,,,1000,001,02,2021_Nov_02_1620,task-switching-replication,2021.2.3,60.00349065106365,
1,9,timed,02,standing,switch,incongruant,solid,triangle,blue,stimuli/solid-rectangle.png,stimuli/blue-triangle.png,1,,,,,,,,,,,,,0,8,8,8,0,0,0,0,,,,,,,,,,,,,,,,,,,,,,,,,,,,,,,,,,,,,,,,,,,,,,,,,,,,,,,,,,,,,,,,,,,,,,,,,,,,,,,,,,,,,,,,,,,,,,1307.1051699638365,1308.155011177063,1307.1362969875336,None,,,,,,,,,,,,,1304.5872111320496,None,1305.5702300071716,None,None,0,1305.5702300071716,None,,,,,,,,,,,,,,,,,,,,,,,1000,001,02,2021_Nov_02_1620,task-switching-replication,2021.2.3,60.00349065106365,
1,9,timed,02,standing,switch,incongruant,solid,triangle,blue,stimuli/solid-rectangle.png,stimuli/blue-triangle.png,1,,,,,,,,,,,,,0,8,8,8,,,,,,,,,,,,,,,,,,,,,,,,,,,,,,,,,,,,,,,,,,,,,,,,,,,,,,,,,,,,,,,,,,,,,,,,,,,,,,,,,,,,,,,,,,,,,,,,1312.1560730934143,None,,,,,,,,,,,,,,,,,,,,,,,,,,,,,,,,,,,,,,,,,,,,,,,1000,001,02,2021_Nov_02_1620,task-switching-replication,2021.2.3,60.00349065106365,
1,10,timed,02,standing,switch,congruant,dashed,square,blue,stimuli/dashed-rectangle.png,stimuli/blue-square.png,1,,,,,,,,,,,,,0,9,9,9,,,,,0,0,0,0,,,,,,,,,,,,,,,,,,,,,,,,,,,,,,,,,,,,,,,,,,,,,,,,,,,,,,,,,,,,,,,,,,,,,,,,,,,,,,,,,,,,1314.8725077629088,1315.9227459430695,1314.9040701389313,None,,,,,,,,,,,,,,,,,,,1312.3534951210022,None,1313.3376820087433,None,None,0,1313.3376820087433,None,,,,,,,,,,,,,,,,,,,,,,,1000,001,02,2021_Nov_02_1620,task-switching-replication,2021.2.3,60.00349065106365,
1,10,timed,02,standing,switch,congruant,dashed,square,blue,stimuli/dashed-rectangle.png,stimuli/blue-square.png,1,,,,,,,,,,,,,0,9,9,9,,,,,,,,,,,,,,,,,,,,,,,,,,,,,,,,,,,,,,,,,,,,,,,,,,,,,,,,,,,,,,,,,,,,,,,,,,,,,,,,,,,,,,,,,,,,,,,,1319.9239661693573,None,,,,,,,,,,,,,,,,,,,,,,,,,,,,,,,,,,,,,,,,,,,,,,,1000,001,02,2021_Nov_02_1620,task-switching-replication,2021.2.3,60.00349065106365,
1,11,timed,02,standing,switch,congruant,solid,square,blue,stimuli/solid-rectangle.png,stimuli/blue-square.png,1,,,,,,,,,,,,,0,10,10,10,0,0,0,0,,,,,,,,,,,,,,,,,,,,,,,,,,,,,,,,,,,,,,,,,,,,,,,,,,,,,,,,,,,,,,,,,,,,,,,,,,,,,,,,,,,,,,,,,,,,,,1322.6417498111723,1323.691535949707,1322.6727559566498,None,,,,,,,,,,,,,1320.1203651428223,None,1321.1051020622253,None,None,0,1321.1051020622253,None,,,,,,,,,,,,,,,,,,,,,,,1000,001,02,2021_Nov_02_1620,task-switching-replication,2021.2.3,60.00349065106365,
1,11,timed,02,standing,switch,congruant,solid,square,blue,stimuli/solid-rectangle.png,stimuli/blue-square.png,1,,,,,,,,,,,,,0,10,10,10,,,,,,,,,,,,,,,,,,,,,,,,,,,,,,,,,,,,,,,,,,,,,,,,,,,,,,,,,,,,,,,,,,,,,,,,,,,,,,,,,,,,,,,,,,,,,,,,1327.6923501491547,None,,,,,,,,,,,,,,,,,,,,,,,,,,,,,,,,,,,,,,,,,,,,,,,1000,001,02,2021_Nov_02_1620,task-switching-replication,2021.2.3,60.00349065106365,
1,12,timed,02,standing,switch,congruant,dashed,square,blue,stimuli/dashed-rectangle.png,stimuli/blue-square.png,1,,,,,,,,,,,,,0,11,11,11,,,,,0,0,0,0,,,,,,,,,,,,,,,,,,,,,,,,,,,,,,,,,,,,,,,,,,,,,,,,,,,,,,,,,,,,,,,,,,,,,,,,,,,,,,,,,,,,1330.410936784744,1331.4614660739899,1330.4423341751099,None,,,,,,,,,,,,,,,,,,,1327.8893220424652,None,1328.8756611347198,None,None,0,1328.8756611347198,None,,,,,,,,,,,,,,,,,,,,,,,1000,001,02,2021_Nov_02_1620,task-switching-replication,2021.2.3,60.00349065106365,
1,12,timed,02,standing,switch,congruant,dashed,square,blue,stimuli/dashed-rectangle.png,stimuli/blue-square.png,1,,,,,,,,,,,,,0,11,11,11,,,,,,,,,,,,,,,,,,,,,,,,,,,,,,,,,,,,,,,,,,,,,,,,,,,,,,,,,,,,,,,,,,,,,,,,,,,,,,,,,,,,,,,,,,,,,,,,1335.463984966278,None,,,,,,,,,,,,,,,,,,,,,,,,,,,,,,,,,,,,,,,,,,,,,,,1000,001,02,2021_Nov_02_1620,task-switching-replication,2021.2.3,60.00349065106365,
1,13,timed,02,standing,switch,congruant,solid,triangle,blue,stimuli/solid-rectangle.png,stimuli/blue-triangle.png,1,,,,,,,,,,,,,0,12,12,12,0,0,0,0,,,,,,,,,,,,,,,,,,,,,,,,,,,,,,,,,,,,,,,,,,,,,,,,,,,,,,,,,,,,,,,,,,,,,,,,,,,,,,,,,,,,,,,,,,,,,,1338.178628873825,1339.1994609832764,1338.2104880809784,None,,,,,,,,,,,,,1335.6604399681091,None,1336.644718170166,None,None,0,1336.644718170166,None,,,,,,,,,,,,,,,,,,,,,,,1000,001,02,2021_Nov_02_1620,task-switching-replication,2021.2.3,60.00349065106365,
1,13,timed,02,standing,switch,congruant,solid,triangle,blue,stimuli/solid-rectangle.png,stimuli/blue-triangle.png,1,,,,,,,,,,,,,0,12,12,12,,,,,,,,,,,,,,,,,,,,,,,,,,,,,,,,,,,,,,,,,,,,,,,,,,,,,,,,,,,,,,,,,,,,,,,,,,,,,,,,,,,,,,,,,,,,,,,,1343.234717130661,None,,,,,,,,,,,,,,,,,,,,,,,,,,,,,,,,,,,,,,,,,,,,,,,1000,001,02,2021_Nov_02_1620,task-switching-replication,2021.2.3,60.00349065106365,
1,14,timed,02,standing,noswitch,incongruant,solid,square,yellow,stimuli/solid-rectangle.png,stimuli/yellow-square.png,2,,,,,,,,,,,,,0,13,13,13,,,,,,,,,,,,,,,,,,,,,,,,,,,,,,,,,,,,,,,,,,,,,,,,,,,,,,,,,,,,,,,,,,,,,,,,,,,,,,,,,,,,,,,,,,,,,,,,1345.3192920684814,None,,,,,,,,,,,,,,,,,1343.431048154831,None,1344.4153690338135,None,2,1,1344.4153690338135,None,0.7950911521911621,,,,,,,,,,,,,,,,,,,,,,1000,001,02,2021_Nov_02_1620,task-switching-replication,2021.2.3,60.00349065106365,
1,15,timed,02,standing,switch,congruant,dashed,triangle,blue,stimuli/dashed-rectangle.png,stimuli/blue-triangle.png,2,,,,,,,,,,,,,0,14,14,14,,,,,,,,,,,,,,,,,,,,,,,,,,,,,,,,,,,,,,,,,,,,,,,,,,,,,,,,,,,,,,,,,,,,,,,,,,,,,,,,,,,,,,,,,,,,,,,,1347.4969320297241,None,,,,,,,,,,,,,,,,,1345.5479590892792,None,1346.532947063446,None,2,1,1346.532947063446,None,0.8664150238037109,,,,,,,,,,,,,,,,,,,,,,1000,001,02,2021_Nov_02_1620,task-switching-replication,2021.2.3,60.00349065106365,
1,16,timed,02,standing,noswitch,congruant,dashed,triangle,yellow,stimuli/dashed-rectangle.png,stimuli/yellow-triangle.png,2,,,,,,,,,,,,,0,15,15,15,,,,,0,0,0,0,,,,,,,,,,,,,,,,,,,,,,,,,,,,,,,,,,,,,,,,,,,,,,,,,,,,,,,,,,,,,,,,,,,,,,,,,,,,,,,,,,,,1349.5884989500046,1350.6394309997559,1349.6204340457916,None,,,,,,,,,,,,,,,,,,,1347.7258400917053,None,1348.7105360031128,None,1,0,1348.7105360031128,None,0.7615489959716797,,,,,,,,,,,,,,,,,,,,,,1000,001,02,2021_Nov_02_1620,task-switching-replication,2021.2.3,60.00349065106365,
1,16,timed,02,standing,noswitch,congruant,dashed,triangle,yellow,stimuli/dashed-rectangle.png,stimuli/yellow-triangle.png,2,,,,,,,,,,,,,0,15,15,15,,,,,,,,,,,,,,,,,,,,,,,,,,,,,,,,,,,,,,,,,,,,,,,,,,,,,,,,,,,,,,,,,,,,,,,,,,,,,,,,,,,,,,,,,,,,,,,,1354.6380190849304,None,,,,,,,,,,,,,,,,,,,,,,,,,,,,,,,,,,,,,,,,,,,,,,,1000,001,02,2021_Nov_02_1620,task-switching-replication,2021.2.3,60.00349065106365,
1,17,timed,02,standing,switch,congruant,solid,triangle,yellow,stimuli/solid-rectangle.png,stimuli/yellow-triangle.png,2,,,,,,,,,,,,,0,16,16,16,0,0,0,0,,,,,,,,,,,,,,,,,,,,,,,,,,,,,,,,,,,,,,,,,,,,,,,,,,,,,,,,,,,,,,,,,,,,,,,,,,,,,,,,,,,,,,,,,,,,,,1357.3513798236845,1358.4032900333405,1357.3823809623718,None,,,,,,,,,,,,,1354.8340811729431,None,1355.8175530433655,None,None,0,1355.8175530433655,None,,,,,,,,,,,,,,,,,,,,,,,1000,001,02,2021_Nov_02_1620,task-switching-replication,2021.2.3,60.00349065106365,
1,17,timed,02,standing,switch,congruant,solid,triangle,yellow,stimuli/solid-rectangle.png,stimuli/yellow-triangle.png,2,,,,,,,,,,,,,0,16,16,16,,,,,,,,,,,,,,,,,,,,,,,,,,,,,,,,,,,,,,,,,,,,,,,,,,,,,,,,,,,,,,,,,,,,,,,,,,,,,,,,,,,,,,,,,,,,,,,,1362.4028260707855,None,,,,,,,,,,,,,,,,,,,,,,,,,,,,,,,,,,,,,,,,,,,,,,,1000,001,02,2021_Nov_02_1620,task-switching-replication,2021.2.3,60.00349065106365,
1,18,timed,02,standing,switch,congruant,dashed,triangle,yellow,stimuli/dashed-rectangle.png,stimuli/yellow-triangle.png,2,,,,,,,,,,,,,0,17,17,17,,,,,0,0,0,0,,,,,,,,,,,,,,,,,,,,,,,,,,,,,,,,,,,,,,,,,,,,,,,,,,,,,,,,,,,,,,,,,,,,,,,,,,,,,,,,,,,,1364.464793086052,1365.4828040599823,1364.4983670711517,None,,,,,,,,,,,,,,,,,,,1362.5995919704437,None,1363.5841159820557,None,1,0,1363.5841159820557,None,0.7698459625244141,,,,,,,,,,,,,,,,,,,,,,1000,001,02,2021_Nov_02_1620,task-switching-replication,2021.2.3,60.00349065106365,
1,18,timed,02,standing,switch,congruant,dashed,triangle,yellow,stimuli/dashed-rectangle.png,stimuli/yellow-triangle.png,2,,,,,,,,,,,,,0,17,17,17,,,,,,,,,,,,,,,,,,,,,,,,,,,,,,,,,,,,,,,,,,,,,,,,,,,,,,,,,,,,,,,,,,,,,,,,,,,,,,,,,,,,,,,,,,,,,,,,1369.5194890499115,None,,,,,,,,,,,,,,,,,,,,,,,,,,,,,,,,,,,,,,,,,,,,,,,1000,001,02,2021_Nov_02_1620,task-switching-replication,2021.2.3,60.00349065106365,
1,19,timed,02,standing,noswitch,incongruant,dashed,square,yellow,stimuli/dashed-rectangle.png,stimuli/yellow-square.png,1,,,,,,,,,,,,,0,18,18,18,,,,,0,0,0,0,,,,,,,,,,,,,,,,,,,,,,,,,,,,,,,,,,,,,,,,,,,,,,,,,,,,,,,,,,,,,,,,,,,,,,,,,,,,,,,,,,,,1372.235260915756,1373.2859580516815,1372.2667760849,None,,,,,,,,,,,,,,,,,,,1369.7165369987488,None,1370.6994540691376,None,None,0,1370.6994540691376,None,,,,,,,,,,,,,,,,,,,,,,,1000,001,02,2021_Nov_02_1620,task-switching-replication,2021.2.3,60.00349065106365,
1,19,timed,02,standing,noswitch,incongruant,dashed,square,yellow,stimuli/dashed-rectangle.png,stimuli/yellow-square.png,1,,,,,,,,,,,,,0,18,18,18,,,,,,,,,,,,,,,,,,,,,,,,,,,,,,,,,,,,,,,,,,,,,,,,,,,,,,,,,,,,,,,,,,,,,,,,,,,,,,,,,,,,,,,,,,,,,,,,1377.2883260250092,None,,,,,,,,,,,,,,,,,,,,,,,,,,,,,,,,,,,,,,,,,,,,,,,1000,001,02,2021_Nov_02_1620,task-switching-replication,2021.2.3,60.00349065106365,
1,20,timed,02,standing,noswitch,incongruant,dashed,triangle,yellow,stimuli/dashed-rectangle.png,stimuli/yellow-triangle.png,2,,,,,,,,,,,,,0,19,19,19,,,,,0,0,0,0,,,,,,,,,,,,,,,,,,,,,,,,,,,,,,,,,,,,,,,,,,,,,,,,,,,,,,,,,,,,,,,,,,,,,,,,,,,,,,,,,,,,1379.168604016304,1380.2208960056305,1379.2016530036926,None,,,,,,,,,,,,,,,,,,,1377.4845640659332,None,1378.4690849781036,None,1,0,1378.4690849781036,None,0.6020340919494629,,,,,,,,,,,,,,,,,,,,,,1000,001,02,2021_Nov_02_1620,task-switching-replication,2021.2.3,60.00349065106365,
1,20,timed,02,standing,noswitch,incongruant,dashed,triangle,yellow,stimuli/dashed-rectangle.png,stimuli/yellow-triangle.png,2,,,,,,,,,,,,,0,19,19,19,,,,,,,,,,,,,,,,,,,,,,,,,,,,,,,,,,,,,,,,,,,,,,,,,,,,,,,,,,,,,,,,,,,,,,,,,,,,,,,,,,,,,,,,,,,,,,,,1384.2227680683136,None,,,,,,,,,,,,,,,,,,,,,,,,,,,,,,,,,,,,,,,,,,,,,,,1000,001,02,2021_Nov_02_1620,task-switching-replication,2021.2.3,60.00349065106365,
1,21,timed,02,standing,switch,incongruant,solid,square,blue,stimuli/solid-rectangle.png,stimuli/blue-square.png,1,,,,,,,,,,,,,0,20,20,20,0,0,0,0,,,,,,,,,,,,,,,,,,,,,,,,,,,,,,,,,,,,,,,,,,,,,,,,,,,,,,,,,,,,,,,,,,,,,,,,,,,,,,,,,,,,,,,,,,,,,,1386.9400529384611,1387.9923269748688,1386.9714450836182,None,,,,,,,,,,,,,1384.419760942459,None,1385.404018163681,None,None,0,1385.404018163681,None,,,,,,,,,,,,,,,,,,,,,,,1000,001,02,2021_Nov_02_1620,task-switching-replication,2021.2.3,60.00349065106365,
1,21,timed,02,standing,switch,incongruant,solid,square,blue,stimuli/solid-rectangle.png,stimuli/blue-square.png,1,,,,,,,,,,,,,0,20,20,20,,,,,,,,,,,,,,,,,,,,,,,,,,,,,,,,,,,,,,,,,,,,,,,,,,,,,,,,,,,,,,,,,,,,,,,,,,,,,,,,,,,,,,,,,,,,,,,,1391.9960470199585,None,,,,,,,,,,,,,,,,,,,,,,,,,,,,,,,,,,,,,,,,,,,,,,,1000,001,02,2021_Nov_02_1620,task-switching-replication,2021.2.3,60.00349065106365,
1,22,timed,02,standing,switch,congruant,dashed,square,yellow,stimuli/dashed-rectangle.png,stimuli/yellow-square.png,1,,,,,,,,,,,,,0,21,21,21,,,,,0,0,0,0,,,,,,,,,,,,,,,,,,,,,,,,,,,,,,,,,,,,,,,,,,,,,,,,,,,,,,,,,,,,,,,,,,,,,,,,,,,,,,,,,,,,1394.7141339302061,1395.7645370960236,1394.7454731464386,None,,,,,,,,,,,,,,,,,,,1392.192780971527,None,1393.1789009571075,None,None,0,1393.1789009571075,None,,,,,,,,,,,,,,,,,,,,,,,1000,001,02,2021_Nov_02_1620,task-switching-replication,2021.2.3,60.00349065106365,
1,22,timed,02,standing,switch,congruant,dashed,square,yellow,stimuli/dashed-rectangle.png,stimuli/yellow-square.png,1,,,,,,,,,,,,,0,21,21,21,,,,,,,,,,,,,,,,,,,,,,,,,,,,,,,,,,,,,,,,,,,,,,,,,,,,,,,,,,,,,,,,,,,,,,,,,,,,,,,,,,,,,,,,,,,,,,,,1399.768315076828,None,,,,,,,,,,,,,,,,,,,,,,,,,,,,,,,,,,,,,,,,,,,,,,,1000,001,02,2021_Nov_02_1620,task-switching-replication,2021.2.3,60.00349065106365,
1,23,timed,02,standing,switch,incongruant,solid,square,yellow,stimuli/solid-rectangle.png,stimuli/yellow-square.png,2,,,,,,,,,,,,,0,22,22,22,,,,,,,,,,,,,,,,,,,,,,,,,,,,,,,,,,,,,,,,,,,,,,,,,,,,,,,,,,,,,,,,,,,,,,,,,,,,,,,,,,,,,,,,,,,,,,,,1402.447121143341,None,,,,,,,,,,,,,,,,,1399.9647459983826,None,1400.9490089416504,None,2,1,1400.9490089416504,None,1.345123052597046,,,,,,,,,,,,,,,,,,,,,,1000,001,02,2021_Nov_02_1620,task-switching-replication,2021.2.3,60.00349065106365,
1,24,timed,02,standing,switch,congruant,dashed,triangle,blue,stimuli/dashed-rectangle.png,stimuli/blue-triangle.png,2,,,,,,,,,,,,,0,23,23,23,,,,,0,0,0,0,,,,,,,,,,,,,,,,,,,,,,,,,,,,,,,,,,,,,,,,,,,,,,,,,,,,,,,,,,,,,,,,,,,,,,,,,,,,,,,,,,,,1404.6563061475754,1405.707262992859,1404.6882491111755,None,,,,,,,,,,,,,,,,,,,1402.6763081550598,None,1403.65904712677,None,1,0,1403.65904712677,None,0.8762598037719727,,,,,,,,,,,,,,,,,,,,,,1000,001,02,2021_Nov_02_1620,task-switching-replication,2021.2.3,60.00349065106365,
1,24,timed,02,standing,switch,congruant,dashed,triangle,blue,stimuli/dashed-rectangle.png,stimuli/blue-triangle.png,2,,,,,,,,,,,,,0,23,23,23,,,,,,,,,,,,,,,,,,,,,,,,,,,,,,,,,,,,,,,,,,,,,,,,,,,,,,,,,,,,,,,,,,,,,,,,,,,,,,,,,,,,,,,,,,,,,,,,1409.7095799446106,None,,,,,,,,,,,,,,,,,,,,,,,,,,,,,,,,,,,,,,,,,,,,,,,1000,001,02,2021_Nov_02_1620,task-switching-replication,2021.2.3,60.00349065106365,
1,1,experiment,02,standing,buffer,buffer,dashed,triangle,blue,stimuli/dashed-rectangle.png,stimuli/blue-triangle.png,2,,,,,,,,,,,,,,,,,,,,,,,,,0,0,0,0,0,0,0,0,0,0,0,0,,,,,,,,,1409.91894197464,None,1,6.42799711227417,1409.91894197464,None,,,,,,,,,,,,,,,,,,,,,,,,,,,,,,,,,,,,,,,,,,,,,,,,,,,,,,,,,,,,,,1458.424113035202,None,,,,,,,,,,,,,,,,,,,,,,,,,,1416.4416511058807,None,2,32.76424503326416,1416.4416511058807,None,1449.3248219490051,None,1,6.612320899963379,1449.3248219490051,None,1456.0604331493378,None,1457.0455651283264,None,2,1,1.281512975692749,1457.0455651283264,None,1000,001,02,2021_Nov_02_1620,task-switching-replication,2021.2.3,60.00349065106365,
1,2,experiment,02,standing,switch,congruant,solid,triangle,yellow,stimuli/solid-rectangle.png,stimuli/yellow-triangle.png,2,,,,,,,,,,,,,,,,,,,,,,,,,0,0,0,0,0,0,0,0,0,1,1,1,0,0,0,0,,,,,,,,,,,,,,,,,,,,,,,,,,,,,,,,,,,,,,,,,,,,,,,,,,,,,,,,,,,,,,,,,,,,,,,,,,1460.6325200796127,1461.6839561462402,1460.664762020111,None,,,,,,,,,,,,,,,,,,,,,,,,,,,,,,,,,,1458.6529490947723,None,1459.6377341747284,None,1,0,0.9115219116210938,1459.6377341747284,None,1000,001,02,2021_Nov_02_1620,task-switching-replication,2021.2.3,60.00349065106365,
1,2,experiment,02,standing,switch,congruant,solid,triangle,yellow,stimuli/solid-rectangle.png,stimuli/yellow-triangle.png,2,,,,,,,,,,,,,,,,,,,,,,,,,0,0,0,0,0,0,0,0,0,1,1,1,,,,,,,,,,,,,,,,,,,,,,,,,,,,,,,,,,,,,,,,,,,,,,,,,,,,,,,,,,,,,,,,,,,,,,,,,,,,1465.684462070465,None,,,,,,,,,,,,,,,,,,,,,,,,,,,,,,,,,,,,,,,,,,,,,,,1000,001,02,2021_Nov_02_1620,task-switching-replication,2021.2.3,60.00349065106365,
1,3,experiment,02,standing,noswitch,congruant,solid,triangle,yellow,stimuli/solid-rectangle.png,stimuli/yellow-triangle.png,2,,,,,,,,,,,,,,,,,,,,,,,,,0,0,0,0,0,0,0,0,0,2,2,2,0,0,0,0,,,,,,,,,,,,,,,,,,,,,,,,,,,,,,,,,,,,,,,,,,,,,,,,,,,,,,,,,,,,,,,,,,,,,,,,,,1468.398061943054,1469.4491090774536,1468.4289741516113,None,,,,,,,,,,,,,,,,,,,,,,,,,,,,,,,,,,1465.8810801506042,None,1466.863734960556,None,None,0,,1466.863734960556,None,1000,001,02,2021_Nov_02_1620,task-switching-replication,2021.2.3,60.00349065106365,
1,3,experiment,02,standing,noswitch,congruant,solid,triangle,yellow,stimuli/solid-rectangle.png,stimuli/yellow-triangle.png,2,,,,,,,,,,,,,,,,,,,,,,,,,0,0,0,0,0,0,0,0,0,2,2,2,,,,,,,,,,,,,,,,,,,,,,,,,,,,,,,,,,,,,,,,,,,,,,,,,,,,,,,,,,,,,,,,,,,,,,,,,,,,1473.4500200748444,None,,,,,,,,,,,,,,,,,,,,,,,,,,,,,,,,,,,,,,,,,,,,,,,1000,001,02,2021_Nov_02_1620,task-switching-replication,2021.2.3,60.00349065106365,
1,4,experiment,02,standing,noswitch,incongruant,solid,triangle,blue,stimuli/solid-rectangle.png,stimuli/blue-triangle.png,1,,,,,,,,,,,,,,,,,,,,,,,,,0,0,0,0,0,0,0,0,0,3,3,3,,,,,,,,,,,,,,,,,,,,,,,,,,,,,,,,,,,,,,,,,,,,,,,,,,,,,,,,,,,,,,,,,,,,,,,,,,,,1475.948476076126,None,,,,,,,,,,,,,,,,,,,,,,,,,,,,,,,,,,,,,,1473.646322965622,None,1474.629991054535,None,1,1,1.1848440170288086,1474.629991054535,None,1000,001,02,2021_Nov_02_1620,task-switching-replication,2021.2.3,60.00349065106365,
1,5,experiment,02,standing,switch,incongruant,dashed,triangle,blue,stimuli/dashed-rectangle.png,stimuli/blue-triangle.png,2,,,,,,,,,,,,,,,,,,,,,,,,,0,0,0,0,0,0,0,0,0,4,4,4,,,,,,,,,,,,,,,,,,,,,,,,,,,,,,,,,,,,,,,,,,,,,,,,,,,,,,,,,,,,,,,,,,,,,,,,,,,,1478.0694210529327,None,,,,,,,,,,,,,,,,,,,,,,,,,,,,,,,,,,,,,,1476.1775751113892,None,1477.1614320278168,None,2,1,0.7546031475067139,1477.1614320278168,None,1000,001,02,2021_Nov_02_1620,task-switching-replication,2021.2.3,60.00349065106365,
1,6,experiment,02,standing,noswitch,congruant,dashed,triangle,yellow,stimuli/dashed-rectangle.png,stimuli/yellow-triangle.png,2,,,,,,,,,,,,,,,,,,,,,,,,,0,0,0,0,0,0,0,0,0,5,5,5,,,,,0,0,0,0,,,,,,,,,,,,,,,,,,,,,,,,,,,,,,,,,,,,,,,,,,,,,,,,,,,,,,,,,,,,,,,,1480.1599501371384,1481.211699962616,1480.192654132843,None,,,,,,,,,,,,,,,,,,,,,,,,,,,,,,,,,,,,,,,,1478.2994060516357,None,1479.2833759784698,None,1,0,0.7971761226654053,1479.2833759784698,None,1000,001,02,2021_Nov_02_1620,task-switching-replication,2021.2.3,60.00349065106365,
1,6,experiment,02,standing,noswitch,congruant,dashed,triangle,yellow,stimuli/dashed-rectangle.png,stimuli/yellow-triangle.png,2,,,,,,,,,,,,,,,,,,,,,,,,,0,0,0,0,0,0,0,0,0,5,5,5,,,,,,,,,,,,,,,,,,,,,,,,,,,,,,,,,,,,,,,,,,,,,,,,,,,,,,,,,,,,,,,,,,,,,,,,,,,,1485.2136490345001,None,,,,,,,,,,,,,,,,,,,,,,,,,,,,,,,,,,,,,,,,,,,,,,,1000,001,02,2021_Nov_02_1620,task-switching-replication,2021.2.3,60.00349065106365,
1,7,experiment,02,standing,noswitch,incongruant,dashed,square,blue,stimuli/dashed-rectangle.png,stimuli/blue-square.png,1,,,,,,,,,,,,,,,,,,,,,,,,,0,0,0,0,0,0,0,0,0,6,6,6,,,,,0,0,0,0,,,,,,,,,,,,,,,,,,,,,,,,,,,,,,,,,,,,,,,,,,,,,,,,,,,,,,,,,,,,,,,,1487.6841629743576,1488.7347280979156,1487.7163779735565,None,,,,,,,,,,,,,,,,,,,,,,,,,,,,,,,,,,,,,,,,1485.4103741645813,None,1486.3944599628448,None,2,0,1.2120699882507324,1486.3944599628448,None,1000,001,02,2021_Nov_02_1620,task-switching-replication,2021.2.3,60.00349065106365,
1,7,experiment,02,standing,noswitch,incongruant,dashed,square,blue,stimuli/dashed-rectangle.png,stimuli/blue-square.png,1,,,,,,,,,,,,,,,,,,,,,,,,,0,0,0,0,0,0,0,0,0,6,6,6,,,,,,,,,,,,,,,,,,,,,,,,,,,,,,,,,,,,,,,,,,,,,,,,,,,,,,,,,,,,,,,,,,,,,,,,,,,,1492.7343389987946,None,,,,,,,,,,,,,,,,,,,,,,,,,,,,,,,,,,,,,,,,,,,,,,,1000,001,02,2021_Nov_02_1620,task-switching-replication,2021.2.3,60.00349065106365,
1,8,experiment,02,standing,switch,incongruant,solid,square,yellow,stimuli/solid-rectangle.png,stimuli/yellow-square.png,2,,,,,,,,,,,,,,,,,,,,,,,,,0,0,0,0,0,0,0,0,0,7,7,7,0,0,0,0,,,,,,,,,,,,,,,,,,,,,,,,,,,,,,,,,,,,,,,,,,,,,,,,,,,,,,,,,,,,,,,,,,,,,,,,,,1495.4508759498594,1496.500237941742,1495.4818270206451,None,,,,,,,,,,,,,,,,,,,,,,,,,,,,,,,,,,1492.9309890270233,None,1493.9151890277863,None,None,0,,1493.9151890277863,None,1000,001,02,2021_Nov_02_1620,task-switching-replication,2021.2.3,60.00349065106365,
1,8,experiment,02,standing,switch,incongruant,solid,square,yellow,stimuli/solid-rectangle.png,stimuli/yellow-square.png,2,,,,,,,,,,,,,,,,,,,,,,,,,0,0,0,0,0,0,0,0,0,7,7,7,,,,,,,,,,,,,,,,,,,,,,,,,,,,,,,,,,,,,,,,,,,,,,,,,,,,,,,,,,,,,,,,,,,,,,,,,,,,1500.5017721652985,None,,,,,,,,,,,,,,,,,,,,,,,,,,,,,,,,,,,,,,,,,,,,,,,1000,001,02,2021_Nov_02_1620,task-switching-replication,2021.2.3,60.00349065106365,
1,9,experiment,02,standing,noswitch,congruant,solid,square,yellow,stimuli/solid-rectangle.png,stimuli/yellow-square.png,2,,,,,,,,,,,,,,,,,,,,,,,,,0,0,0,0,0,0,0,0,0,8,8,8,0,0,0,0,,,,,,,,,,,,,,,,,,,,,,,,,,,,,,,,,,,,,,,,,,,,,,,,,,,,,,,,,,,,,,,,,,,,,,,,,,1503.2180239677427,1504.2680170536041,1503.2489759922028,None,,,,,,,,,,,,,,,,,,,,,,,,,,,,,,,,,,1500.6984059810638,None,1501.6835939884186,None,None,0,,1501.6835939884186,None,1000,001,02,2021_Nov_02_1620,task-switching-replication,2021.2.3,60.00349065106365,
1,9,experiment,02,standing,noswitch,congruant,solid,square,yellow,stimuli/solid-rectangle.png,stimuli/yellow-square.png,2,,,,,,,,,,,,,,,,,,,,,,,,,0,0,0,0,0,0,0,0,0,8,8,8,,,,,,,,,,,,,,,,,,,,,,,,,,,,,,,,,,,,,,,,,,,,,,,,,,,,,,,,,,,,,,,,,,,,,,,,,,,,1508.2717201709747,None,,,,,,,,,,,,,,,,,,,,,,,,,,,,,,,,,,,,,,,,,,,,,,,1000,001,02,2021_Nov_02_1620,task-switching-replication,2021.2.3,60.00349065106365,
1,10,experiment,02,standing,noswitch,congruant,solid,square,yellow,stimuli/solid-rectangle.png,stimuli/yellow-square.png,2,,,,,,,,,,,,,,,,,,,,,,,,,0,0,0,0,0,0,0,0,0,9,9,9,,,,,,,,,,,,,,,,,,,,,,,,,,,,,,,,,,,,,,,,,,,,,,,,,,,,,,,,,,,,,,,,,,,,,,,,,,,,1510.5931589603424,None,,,,,,,,,,,,,,,,,,,,,,,,,,,,,,,,,,,,,,1508.4681611061096,None,1509.452159166336,None,2,1,1.021543025970459,1509.452159166336,None,1000,001,02,2021_Nov_02_1620,task-switching-replication,2021.2.3,60.00349065106365,
1,11,experiment,02,standing,switch,incongruant,dashed,square,blue,stimuli/dashed-rectangle.png,stimuli/blue-square.png,1,,,,,,,,,,,,,,,,,,,,,,,,,0,0,0,0,0,0,0,0,0,10,10,10,,,,,0,0,0,0,,,,,,,,,,,,,,,,,,,,,,,,,,,,,,,,,,,,,,,,,,,,,,,,,,,,,,,,,,,,,,,,1512.6833161115646,1513.7349619865417,1512.7165660858154,None,,,,,,,,,,,,,,,,,,,,,,,,,,,,,,,,,,,,,,,,1510.8222830295563,None,1511.806391954422,None,2,0,0.7844598293304443,1511.806391954422,None,1000,001,02,2021_Nov_02_1620,task-switching-replication,2021.2.3,60.00349065106365,
1,11,experiment,02,standing,switch,incongruant,dashed,square,blue,stimuli/dashed-rectangle.png,stimuli/blue-square.png,1,,,,,,,,,,,,,,,,,,,,,,,,,0,0,0,0,0,0,0,0,0,10,10,10,,,,,,,,,,,,,,,,,,,,,,,,,,,,,,,,,,,,,,,,,,,,,,,,,,,,,,,,,,,,,,,,,,,,,,,,,,,,1517.7347021102905,None,,,,,,,,,,,,,,,,,,,,,,,,,,,,,,,,,,,,,,,,,,,,,,,1000,001,02,2021_Nov_02_1620,task-switching-replication,2021.2.3,60.00349065106365,
1,12,experiment,02,standing,switch,incongruant,solid,triangle,yellow,stimuli/solid-rectangle.png,stimuli/yellow-triangle.png,2,,,,,,,,,,,,,,,,,,,,,,,,,0,0,0,0,0,0,0,0,0,11,11,11,0,0,0,0,,,,,,,,,,,,,,,,,,,,,,,,,,,,,,,,,,,,,,,,,,,,,,,,,,,,,,,,,,,,,,,,,,,,,,,,,,1520.4521357536314,1521.5038220882416,1520.483314037323,None,,,,,,,,,,,,,,,,,,,,,,,,,,,,,,,,,,1517.9311120510101,None,1518.917072057724,None,None,0,,1518.917072057724,None,1000,001,02,2021_Nov_02_1620,task-switching-replication,2021.2.3,60.00349065106365,
1,12,experiment,02,standing,switch,incongruant,solid,triangle,yellow,stimuli/solid-rectangle.png,stimuli/yellow-triangle.png,2,,,,,,,,,,,,,,,,,,,,,,,,,0,0,0,0,0,0,0,0,0,11,11,11,,,,,,,,,,,,,,,,,,,,,,,,,,,,,,,,,,,,,,,,,,,,,,,,,,,,,,,,,,,,,,,,,,,,,,,,,,,,1525.5048270225525,None,,,,,,,,,,,,,,,,,,,,,,,,,,,,,,,,,,,,,,,,,,,,,,,1000,001,02,2021_Nov_02_1620,task-switching-replication,2021.2.3,60.00349065106365,
1,13,experiment,02,standing,noswitch,incongruant,solid,triangle,blue,stimuli/solid-rectangle.png,stimuli/blue-triangle.png,1,,,,,,,,,,,,,,,,,,,,,,,,,0,0,0,0,0,0,0,0,0,12,12,12,0,0,0,0,,,,,,,,,,,,,,,,,,,,,,,,,,,,,,,,,,,,,,,,,,,,,,,,,,,,,,,,,,,,,,,,,,,,,,,,,,1528.2179429054258,1529.2680020332336,1528.2491030693054,None,,,,,,,,,,,,,,,,,,,,,,,,,,,,,,,,,,1525.701289176941,None,1526.6843221187592,None,None,0,,1526.6843221187592,None,1000,001,02,2021_Nov_02_1620,task-switching-replication,2021.2.3,60.00349065106365,
1,13,experiment,02,standing,noswitch,incongruant,solid,triangle,blue,stimuli/solid-rectangle.png,stimuli/blue-triangle.png,1,,,,,,,,,,,,,,,,,,,,,,,,,0,0,0,0,0,0,0,0,0,12,12,12,,,,,,,,,,,,,,,,,,,,,,,,,,,,,,,,,,,,,,,,,,,,,,,,,,,,,,,,,,,,,,,,,,,,,,,,,,,,1533.2647681236267,None,,,,,,,,,,,,,,,,,,,,,,,,,,,,,,,,,,,,,,,,,,,,,,,1000,001,02,2021_Nov_02_1620,task-switching-replication,2021.2.3,60.00349065106365,
1,14,experiment,02,standing,noswitch,incongruant,solid,triangle,yellow,stimuli/solid-rectangle.png,stimuli/yellow-triangle.png,2,,,,,,,,,,,,,,,,,,,,,,,,,0,0,0,0,0,0,0,0,0,13,13,13,0,0,0,0,,,,,,,,,,,,,,,,,,,,,,,,,,,,,,,,,,,,,,,,,,,,,,,,,,,,,,,,,,,,,,,,,,,,,,,,,,1535.6769951581955,1536.7280690670013,1535.7097799777985,None,,,,,,,,,,,,,,,,,,,,,,,,,,,,,,,,,,1533.461040019989,None,1534.4449670314789,None,1,0,1.1295239925384521,1534.4449670314789,None,1000,001,02,2021_Nov_02_1620,task-switching-replication,2021.2.3,60.00349065106365,
1,14,experiment,02,standing,noswitch,incongruant,solid,triangle,yellow,stimuli/solid-rectangle.png,stimuli/yellow-triangle.png,2,,,,,,,,,,,,,,,,,,,,,,,,,0,0,0,0,0,0,0,0,0,13,13,13,,,,,,,,,,,,,,,,,,,,,,,,,,,,,,,,,,,,,,,,,,,,,,,,,,,,,,,,,,,,,,,,,,,,,,,,,,,,1540.7281341552734,None,,,,,,,,,,,,,,,,,,,,,,,,,,,,,,,,,,,,,,,,,,,,,,,1000,001,02,2021_Nov_02_1620,task-switching-replication,2021.2.3,60.00349065106365,
1,15,experiment,02,standing,switch,incongruant,dashed,square,blue,stimuli/dashed-rectangle.png,stimuli/blue-square.png,1,,,,,,,,,,,,,,,,,,,,,,,,,0,0,0,0,0,0,0,0,0,14,14,14,,,,,0,0,0,0,,,,,,,,,,,,,,,,,,,,,,,,,,,,,,,,,,,,,,,,,,,,,,,,,,,,,,,,,,,,,,,,1543.443721961975,1544.494294166565,1543.4752881526947,None,,,,,,,,,,,,,,,,,,,,,,,,,,,,,,,,,,,,,,,,1540.924931049347,None,1541.9090020656586,None,None,0,,1541.9090020656586,None,1000,001,02,2021_Nov_02_1620,task-switching-replication,2021.2.3,60.00349065106365,
1,15,experiment,02,standing,switch,incongruant,dashed,square,blue,stimuli/dashed-rectangle.png,stimuli/blue-square.png,1,,,,,,,,,,,,,,,,,,,,,,,,,0,0,0,0,0,0,0,0,0,14,14,14,,,,,,,,,,,,,,,,,,,,,,,,,,,,,,,,,,,,,,,,,,,,,,,,,,,,,,,,,,,,,,,,,,,,,,,,,,,,1548.494791984558,None,,,,,,,,,,,,,,,,,,,,,,,,,,,,,,,,,,,,,,,,,,,,,,,1000,001,02,2021_Nov_02_1620,task-switching-replication,2021.2.3,60.00349065106365,
1,16,experiment,02,standing,noswitch,congruant,dashed,square,blue,stimuli/dashed-rectangle.png,stimuli/blue-square.png,1,,,,,,,,,,,,,,,,,,,,,,,,,0,0,0,0,0,0,0,0,0,15,15,15,,,,,0,0,0,0,,,,,,,,,,,,,,,,,,,,,,,,,,,,,,,,,,,,,,,,,,,,,,,,,,,,,,,,,,,,,,,,1551.2105309486387,1552.2601289749146,1551.241949081421,None,,,,,,,,,,,,,,,,,,,,,,,,,,,,,,,,,,,,,,,,1548.691535949707,None,1549.6751251220703,None,None,0,,1549.6751251220703,None,1000,001,02,2021_Nov_02_1620,task-switching-replication,2021.2.3,60.00349065106365,
1,16,experiment,02,standing,noswitch,congruant,dashed,square,blue,stimuli/dashed-rectangle.png,stimuli/blue-square.png,1,,,,,,,,,,,,,,,,,,,,,,,,,0,0,0,0,0,0,0,0,0,15,15,15,,,,,,,,,,,,,,,,,,,,,,,,,,,,,,,,,,,,,,,,,,,,,,,,,,,,,,,,,,,,,,,,,,,,,,,,,,,,1556.2603549957275,None,,,,,,,,,,,,,,,,,,,,,,,,,,,,,,,,,,,,,,,,,,,,,,,1000,001,02,2021_Nov_02_1620,task-switching-replication,2021.2.3,60.00349065106365,
1,17,experiment,02,standing,noswitch,congruant,dashed,square,yellow,stimuli/dashed-rectangle.png,stimuli/yellow-square.png,1,,,,,,,,,,,,,,,,,,,,,,,,,0,0,0,0,0,0,0,0,0,16,16,16,,,,,0,0,0,0,,,,,,,,,,,,,,,,,,,,,,,,,,,,,,,,,,,,,,,,,,,,,,,,,,,,,,,,,,,,,,,,1558.9775979042051,1560.0283739566803,1559.0090301036835,None,,,,,,,,,,,,,,,,,,,,,,,,,,,,,,,,,,,,,,,,1556.4567790031433,None,1557.4416830539703,None,None,0,,1557.4416830539703,None,1000,001,02,2021_Nov_02_1620,task-switching-replication,2021.2.3,60.00349065106365,
1,17,experiment,02,standing,noswitch,congruant,dashed,square,yellow,stimuli/dashed-rectangle.png,stimuli/yellow-square.png,1,,,,,,,,,,,,,,,,,,,,,,,,,0,0,0,0,0,0,0,0,0,16,16,16,,,,,,,,,,,,,,,,,,,,,,,,,,,,,,,,,,,,,,,,,,,,,,,,,,,,,,,,,,,,,,,,,,,,,,,,,,,,1564.0308649539948,None,,,,,,,,,,,,,,,,,,,,,,,,,,,,,,,,,,,,,,,,,,,,,,,1000,001,02,2021_Nov_02_1620,task-switching-replication,2021.2.3,60.00349065106365,
1,18,experiment,02,standing,noswitch,incongruant,dashed,triangle,blue,stimuli/dashed-rectangle.png,stimuli/blue-triangle.png,2,,,,,,,,,,,,,,,,,,,,,,,,,0,0,0,0,0,0,0,0,0,17,17,17,,,,,0,0,0,0,,,,,,,,,,,,,,,,,,,,,,,,,,,,,,,,,,,,,,,,,,,,,,,,,,,,,,,,,,,,,,,,1566.7473029613493,1567.7973301410675,1566.7792999744415,None,,,,,,,,,,,,,,,,,,,,,,,,,,,,,,,,,,,,,,,,1564.2274279594421,None,1565.211611032486,None,None,0,,1565.211611032486,None,1000,001,02,2021_Nov_02_1620,task-switching-replication,2021.2.3,60.00349065106365,
1,18,experiment,02,standing,noswitch,incongruant,dashed,triangle,blue,stimuli/dashed-rectangle.png,stimuli/blue-triangle.png,2,,,,,,,,,,,,,,,,,,,,,,,,,0,0,0,0,0,0,0,0,0,17,17,17,,,,,,,,,,,,,,,,,,,,,,,,,,,,,,,,,,,,,,,,,,,,,,,,,,,,,,,,,,,,,,,,,,,,,,,,,,,,1571.7995800971985,None,,,,,,,,,,,,,,,,,,,,,,,,,,,,,,,,,,,,,,,,,,,,,,,1000,001,02,2021_Nov_02_1620,task-switching-replication,2021.2.3,60.00349065106365,
1,19,experiment,02,standing,noswitch,incongruant,dashed,square,yellow,stimuli/dashed-rectangle.png,stimuli/yellow-square.png,1,,,,,,,,,,,,,,,,,,,,,,,,,0,0,0,0,0,0,0,0,0,18,18,18,,,,,0,0,0,0,,,,,,,,,,,,,,,,,,,,,,,,,,,,,,,,,,,,,,,,,,,,,,,,,,,,,,,,,,,,,,,,1574.5144078254698,1575.5640490055084,1574.5460121631622,None,,,,,,,,,,,,,,,,,,,,,,,,,,,,,,,,,,,,,,,,1571.9961471557617,None,1572.979884147644,None,None,0,,1572.979884147644,None,1000,001,02,2021_Nov_02_1620,task-switching-replication,2021.2.3,60.00349065106365,
1,19,experiment,02,standing,noswitch,incongruant,dashed,square,yellow,stimuli/dashed-rectangle.png,stimuli/yellow-square.png,1,,,,,,,,,,,,,,,,,,,,,,,,,0,0,0,0,0,0,0,0,0,18,18,18,,,,,,,,,,,,,,,,,,,,,,,,,,,,,,,,,,,,,,,,,,,,,,,,,,,,,,,,,,,,,,,,,,,,,,,,,,,,1579.5632829666138,None,,,,,,,,,,,,,,,,,,,,,,,,,,,,,,,,,,,,,,,,,,,,,,,1000,001,02,2021_Nov_02_1620,task-switching-replication,2021.2.3,60.00349065106365,
1,20,experiment,02,standing,noswitch,incongruant,dashed,triangle,blue,stimuli/dashed-rectangle.png,stimuli/blue-triangle.png,2,,,,,,,,,,,,,,,,,,,,,,,,,0,0,0,0,0,0,0,0,0,19,19,19,,,,,,,,,,,,,,,,,,,,,,,,,,,,,,,,,,,,,,,,,,,,,,,,,,,,,,,,,,,,,,,,,,,,,,,,,,,,1582.1793031692505,None,,,,,,,,,,,,,,,,,,,,,,,,,,,,,,,,,,,,,,1579.759889125824,None,1580.7434949874878,None,2,1,1.2972209453582764,1580.7434949874878,None,1000,001,02,2021_Nov_02_1620,task-switching-replication,2021.2.3,60.00349065106365,
1,21,experiment,02,standing,noswitch,congruant,dashed,triangle,yellow,stimuli/dashed-rectangle.png,stimuli/yellow-triangle.png,2,,,,,,,,,,,,,,,,,,,,,,,,,0,0,0,0,0,0,0,0,0,20,20,20,,,,,0,0,0,0,,,,,,,,,,,,,,,,,,,,,,,,,,,,,,,,,,,,,,,,,,,,,,,,,,,,,,,,,,,,,,,,1584.563961148262,1585.6150290966034,1584.596925020218,None,,,,,,,,,,,,,,,,,,,,,,,,,,,,,,,,,,,,,,,,1582.4081661701202,None,1583.392028093338,None,1,0,1.0839028358459473,1583.392028093338,None,1000,001,02,2021_Nov_02_1620,task-switching-replication,2021.2.3,60.00349065106365,
1,21,experiment,02,standing,noswitch,congruant,dashed,triangle,yellow,stimuli/dashed-rectangle.png,stimuli/yellow-triangle.png,2,,,,,,,,,,,,,,,,,,,,,,,,,0,0,0,0,0,0,0,0,0,20,20,20,,,,,,,,,,,,,,,,,,,,,,,,,,,,,,,,,,,,,,,,,,,,,,,,,,,,,,,,,,,,,,,,,,,,,,,,,,,,1589.6181399822235,None,,,,,,,,,,,,,,,,,,,,,,,,,,,,,,,,,,,,,,,,,,,,,,,1000,001,02,2021_Nov_02_1620,task-switching-replication,2021.2.3,60.00349065106365,
1,22,experiment,02,standing,switch,congruant,solid,triangle,yellow,stimuli/solid-rectangle.png,stimuli/yellow-triangle.png,2,,,,,,,,,,,,,,,,,,,,,,,,,0,0,0,0,0,0,0,0,0,21,21,21,0,0,0,0,,,,,,,,,,,,,,,,,,,,,,,,,,,,,,,,,,,,,,,,,,,,,,,,,,,,,,,,,,,,,,,,,,,,,,,,,,1592.335219812393,1593.3860371112823,1592.3663721084595,None,,,,,,,,,,,,,,,,,,,,,,,,,,,,,,,,,,1589.8146171569824,None,1590.7999279499054,None,None,0,,1590.7999279499054,None,1000,001,02,2021_Nov_02_1620,task-switching-replication,2021.2.3,60.00349065106365,
1,22,experiment,02,standing,switch,congruant,solid,triangle,yellow,stimuli/solid-rectangle.png,stimuli/yellow-triangle.png,2,,,,,,,,,,,,,,,,,,,,,,,,,0,0,0,0,0,0,0,0,0,21,21,21,,,,,,,,,,,,,,,,,,,,,,,,,,,,,,,,,,,,,,,,,,,,,,,,,,,,,,,,,,,,,,,,,,,,,,,,,,,,1597.388514995575,None,,,,,,,,,,,,,,,,,,,,,,,,,,,,,,,,,,,,,,,,,,,,,,,1000,001,02,2021_Nov_02_1620,task-switching-replication,2021.2.3,60.00349065106365,
1,23,experiment,02,standing,switch,congruant,dashed,triangle,blue,stimuli/dashed-rectangle.png,stimuli/blue-triangle.png,2,,,,,,,,,,,,,,,,,,,,,,,,,0,0,0,0,0,0,0,0,0,22,22,22,,,,,0,0,0,0,,,,,,,,,,,,,,,,,,,,,,,,,,,,,,,,,,,,,,,,,,,,,,,,,,,,,,,,,,,,,,,,1599.4469109773636,1600.4988420009613,1599.4800779819489,None,,,,,,,,,,,,,,,,,,,,,,,,,,,,,,,,,,,,,,,,1597.5852999687195,None,1598.5698380470276,None,1,0,0.784600019454956,1598.5698380470276,None,1000,001,02,2021_Nov_02_1620,task-switching-replication,2021.2.3,60.00349065106365,
1,23,experiment,02,standing,switch,congruant,dashed,triangle,blue,stimuli/dashed-rectangle.png,stimuli/blue-triangle.png,2,,,,,,,,,,,,,,,,,,,,,,,,,0,0,0,0,0,0,0,0,0,22,22,22,,,,,,,,,,,,,,,,,,,,,,,,,,,,,,,,,,,,,,,,,,,,,,,,,,,,,,,,,,,,,,,,,,,,,,,,,,,,1604.5025751590729,None,,,,,,,,,,,,,,,,,,,,,,,,,,,,,,,,,,,,,,,,,,,,,,,1000,001,02,2021_Nov_02_1620,task-switching-replication,2021.2.3,60.00349065106365,
1,24,experiment,02,standing,switch,incongruant,solid,triangle,blue,stimuli/solid-rectangle.png,stimuli/blue-triangle.png,1,,,,,,,,,,,,,,,,,,,,,,,,,0,0,0,0,0,0,0,0,0,23,23,23,,,,,,,,,,,,,,,,,,,,,,,,,,,,,,,,,,,,,,,,,,,,,,,,,,,,,,,,,,,,,,,,,,,,,,,,,,,,1606.4697380065918,None,,,,,,,,,,,,,,,,,,,,,,,,,,,,,,,,,,,,,,1604.699301958084,None,1605.6834950447083,None,1,1,0.6697499752044678,1605.6834950447083,None,1000,001,02,2021_Nov_02_1620,task-switching-replication,2021.2.3,60.00349065106365,
1,25,experiment,02,standing,switch,congruant,dashed,square,yellow,stimuli/dashed-rectangle.png,stimuli/yellow-square.png,1,,,,,,,,,,,,,,,,,,,,,,,,,0,0,0,0,0,0,0,0,0,24,24,24,,,,,0,0,0,0,,,,,,,,,,,,,,,,,,,,,,,,,,,,,,,,,,,,,,,,,,,,,,,,,,,,,,,,,,,,,,,,1609.2187089443205,1610.2704470157623,1609.2500581741333,None,,,,,,,,,,,,,,,,,,,,,,,,,,,,,,,,,,,,,,,,1606.6988370418549,None,1607.682599067688,None,None,0,,1607.682599067688,None,1000,001,02,2021_Nov_02_1620,task-switching-replication,2021.2.3,60.00349065106365,
1,25,experiment,02,standing,switch,congruant,dashed,square,yellow,stimuli/dashed-rectangle.png,stimuli/yellow-square.png,1,,,,,,,,,,,,,,,,,,,,,,,,,0,0,0,0,0,0,0,0,0,24,24,24,,,,,,,,,,,,,,,,,,,,,,,,,,,,,,,,,,,,,,,,,,,,,,,,,,,,,,,,,,,,,,,,,,,,,,,,,,,,1614.2724311351776,None,,,,,,,,,,,,,,,,,,,,,,,,,,,,,,,,,,,,,,,,,,,,,,,1000,001,02,2021_Nov_02_1620,task-switching-replication,2021.2.3,60.00349065106365,
1,26,experiment,02,standing,noswitch,incongruant,dashed,triangle,blue,stimuli/dashed-rectangle.png,stimuli/blue-triangle.png,2,,,,,,,,,,,,,,,,,,,,,,,,,0,0,0,0,0,0,0,0,0,25,25,25,,,,,,,,,,,,,,,,,,,,,,,,,,,,,,,,,,,,,,,,,,,,,,,,,,,,,,,,,,,,,,,,,,,,,,,,,,,,1616.3589141368866,None,,,,,,,,,,,,,,,,,,,,,,,,,,,,,,,,,,,,,,1614.4691660404205,None,1615.4537899494171,None,2,1,0.8106319904327393,1615.4537899494171,None,1000,001,02,2021_Nov_02_1620,task-switching-replication,2021.2.3,60.00349065106365,
1,27,experiment,02,standing,switch,incongruant,solid,square,blue,stimuli/solid-rectangle.png,stimuli/blue-square.png,1,,,,,,,,,,,,,,,,,,,,,,,,,0,0,0,0,0,0,0,0,0,26,26,26,0,0,0,0,,,,,,,,,,,,,,,,,,,,,,,,,,,,,,,,,,,,,,,,,,,,,,,,,,,,,,,,,,,,,,,,,,,,,,,,,,1618.8035839796066,1619.8549590110779,1618.8362610340118,None,,,,,,,,,,,,,,,,,,,,,,,,,,,,,,,,,,1616.5878100395203,None,1617.572184085846,None,2,0,1.1232669353485107,1617.572184085846,None,1000,001,02,2021_Nov_02_1620,task-switching-replication,2021.2.3,60.00349065106365,
1,27,experiment,02,standing,switch,incongruant,solid,square,blue,stimuli/solid-rectangle.png,stimuli/blue-square.png,1,,,,,,,,,,,,,,,,,,,,,,,,,0,0,0,0,0,0,0,0,0,26,26,26,,,,,,,,,,,,,,,,,,,,,,,,,,,,,,,,,,,,,,,,,,,,,,,,,,,,,,,,,,,,,,,,,,,,,,,,,,,,1623.8560981750488,None,,,,,,,,,,,,,,,,,,,,,,,,,,,,,,,,,,,,,,,,,,,,,,,1000,001,02,2021_Nov_02_1620,task-switching-replication,2021.2.3,60.00349065106365,
1,28,experiment,02,standing,noswitch,congruant,solid,triangle,blue,stimuli/solid-rectangle.png,stimuli/blue-triangle.png,1,,,,,,,,,,,,,,,,,,,,,,,,,0,0,0,0,0,0,0,0,0,27,27,27,0,0,0,0,,,,,,,,,,,,,,,,,,,,,,,,,,,,,,,,,,,,,,,,,,,,,,,,,,,,,,,,,,,,,,,,,,,,,,,,,,1626.569624853134,1627.6218371391296,1626.6005849838257,None,,,,,,,,,,,,,,,,,,,,,,,,,,,,,,,,,,1624.0524640083313,None,1625.035308122635,None,None,0,,1625.035308122635,None,1000,001,02,2021_Nov_02_1620,task-switching-replication,2021.2.3,60.00349065106365,
1,28,experiment,02,standing,noswitch,congruant,solid,triangle,blue,stimuli/solid-rectangle.png,stimuli/blue-triangle.png,1,,,,,,,,,,,,,,,,,,,,,,,,,0,0,0,0,0,0,0,0,0,27,27,27,,,,,,,,,,,,,,,,,,,,,,,,,,,,,,,,,,,,,,,,,,,,,,,,,,,,,,,,,,,,,,,,,,,,,,,,,,,,1631.6239650249481,None,,,,,,,,,,,,,,,,,,,,,,,,,,,,,,,,,,,,,,,,,,,,,,,1000,001,02,2021_Nov_02_1620,task-switching-replication,2021.2.3,60.00349065106365,
1,29,experiment,02,standing,switch,incongruant,dashed,triangle,yellow,stimuli/dashed-rectangle.png,stimuli/yellow-triangle.png,2,,,,,,,,,,,,,,,,,,,,,,,,,0,0,0,0,0,0,0,0,0,28,28,28,,,,,0,0,0,0,,,,,,,,,,,,,,,,,,,,,,,,,,,,,,,,,,,,,,,,,,,,,,,,,,,,,,,,,,,,,,,,1634.339746904373,1635.390527009964,1634.3714001178741,None,,,,,,,,,,,,,,,,,,,,,,,,,,,,,,,,,,,,,,,,1631.8202559947968,None,1632.804710149765,None,None,0,,1632.804710149765,None,1000,001,02,2021_Nov_02_1620,task-switching-replication,2021.2.3,60.00349065106365,
1,29,experiment,02,standing,switch,incongruant,dashed,triangle,yellow,stimuli/dashed-rectangle.png,stimuli/yellow-triangle.png,2,,,,,,,,,,,,,,,,,,,,,,,,,0,0,0,0,0,0,0,0,0,28,28,28,,,,,,,,,,,,,,,,,,,,,,,,,,,,,,,,,,,,,,,,,,,,,,,,,,,,,,,,,,,,,,,,,,,,,,,,,,,,1639.391520023346,None,,,,,,,,,,,,,,,,,,,,,,,,,,,,,,,,,,,,,,,,,,,,,,,1000,001,02,2021_Nov_02_1620,task-switching-replication,2021.2.3,60.00349065106365,
1,30,experiment,02,standing,switch,congruant,solid,square,yellow,stimuli/solid-rectangle.png,stimuli/yellow-square.png,2,,,,,,,,,,,,,,,,,,,,,,,,,0,0,0,0,0,0,0,0,0,29,29,29,,,,,,,,,,,,,,,,,,,,,,,,,,,,,,,,,,,,,,,,,,,,,,,,,,,,,,,,,,,,,,,,,,,,,,,,,,,,1641.4898710250854,None,,,,,,,,,,,,,,,,,,,,,,,,,,,,,,,,,,,,,,1639.5880870819092,None,1640.5830500125885,None,2,1,0.8115830421447754,1640.5830500125885,None,1000,001,02,2021_Nov_02_1620,task-switching-replication,2021.2.3,60.00349065106365,
1,31,experiment,02,standing,noswitch,congruant,solid,square,yellow,stimuli/solid-rectangle.png,stimuli/yellow-square.png,2,,,,,,,,,,,,,,,,,,,,,,,,,0,0,0,0,0,0,0,0,0,30,30,30,,,,,,,,,,,,,,,,,,,,,,,,,,,,,,,,,,,,,,,,,,,,,,,,,,,,,,,,,,,,,,,,,,,,,,,,,,,,1643.4888999462128,None,,,,,,,,,,,,,,,,,,,,,,,,,,,,,,,,,,,,,,1641.718693971634,None,1642.7026121616364,None,2,1,0.6567809581756592,1642.7026121616364,None,1000,001,02,2021_Nov_02_1620,task-switching-replication,2021.2.3,60.00349065106365,
1,32,experiment,02,standing,switch,congruant,dashed,triangle,yellow,stimuli/dashed-rectangle.png,stimuli/yellow-triangle.png,2,,,,,,,,,,,,,,,,,,,,,,,,,0,0,0,0,0,0,0,0,0,31,31,31,,,,,0,0,0,0,,,,,,,,,,,,,,,,,,,,,,,,,,,,,,,,,,,,,,,,,,,,,,,,,,,,,,,,,,,,,,,,1645.9890121221542,1647.00661611557,1646.0222880840302,None,,,,,,,,,,,,,,,,,,,,,,,,,,,,,,,,,,,,,,,,1643.717236995697,None,1644.700257062912,None,1,0,1.2034399509429932,1644.700257062912,None,1000,001,02,2021_Nov_02_1620,task-switching-replication,2021.2.3,60.00349065106365,
1,32,experiment,02,standing,switch,congruant,dashed,triangle,yellow,stimuli/dashed-rectangle.png,stimuli/yellow-triangle.png,2,,,,,,,,,,,,,,,,,,,,,,,,,0,0,0,0,0,0,0,0,0,31,31,31,,,,,,,,,,,,,,,,,,,,,,,,,,,,,,,,,,,,,,,,,,,,,,,,,,,,,,,,,,,,,,,,,,,,,,,,,,,,1651.042279958725,None,,,,,,,,,,,,,,,,,,,,,,,,,,,,,,,,,,,,,,,,,,,,,,,1000,001,02,2021_Nov_02_1620,task-switching-replication,2021.2.3,60.00349065106365,
1,33,experiment,02,standing,switch,incongruant,solid,square,blue,stimuli/solid-rectangle.png,stimuli/blue-square.png,1,,,,,,,,,,,,,,,,,,,,,,,,,0,0,0,0,0,0,0,0,0,32,32,32,0,0,0,0,,,,,,,,,,,,,,,,,,,,,,,,,,,,,,,,,,,,,,,,,,,,,,,,,,,,,,,,,,,,,,,,,,,,,,,,,,1653.754746866226,1654.773626089096,1653.7856299877167,None,,,,,,,,,,,,,,,,,,,,,,,,,,,,,,,,,,1651.2388350963593,None,1652.2211289405823,None,None,0,,1652.2211289405823,None,1000,001,02,2021_Nov_02_1620,task-switching-replication,2021.2.3,60.00349065106365,
1,33,experiment,02,standing,switch,incongruant,solid,square,blue,stimuli/solid-rectangle.png,stimuli/blue-square.png,1,,,,,,,,,,,,,,,,,,,,,,,,,0,0,0,0,0,0,0,0,0,32,32,32,,,,,,,,,,,,,,,,,,,,,,,,,,,,,,,,,,,,,,,,,,,,,,,,,,,,,,,,,,,,,,,,,,,,,,,,,,,,1658.8095700740814,None,,,,,,,,,,,,,,,,,,,,,,,,,,,,,,,,,,,,,,,,,,,,,,,1000,001,02,2021_Nov_02_1620,task-switching-replication,2021.2.3,60.00349065106365,
1,34,experiment,02,standing,noswitch,congruant,solid,triangle,blue,stimuli/solid-rectangle.png,stimuli/blue-triangle.png,1,,,,,,,,,,,,,,,,,,,,,,,,,0,0,0,0,0,0,0,0,0,33,33,33,,,,,,,,,,,,,,,,,,,,,,,,,,,,,,,,,,,,,,,,,,,,,,,,,,,,,,,,,,,,,,,,,,,,,,,,,,,,1661.1907360553741,None,,,,,,,,,,,,,,,,,,,,,,,,,,,,,,,,,,,,,,1659.0059390068054,None,1659.989804983139,None,1,1,1.0624949932098389,1659.989804983139,None,1000,001,02,2021_Nov_02_1620,task-switching-replication,2021.2.3,60.00349065106365,
1,35,experiment,02,standing,noswitch,congruant,solid,square,blue,stimuli/solid-rectangle.png,stimuli/blue-square.png,1,,,,,,,,,,,,,,,,,,,,,,,,,0,0,0,0,0,0,0,0,0,34,34,34,0,0,0,0,,,,,,,,,,,,,,,,,,,,,,,,,,,,,,,,,,,,,,,,,,,,,,,,,,,,,,,,,,,,,,,,,,,,,,,,,,1663.3982800245285,1664.4487750530243,1663.4301371574402,None,,,,,,,,,,,,,,,,,,,,,,,,,,,,,,,,,,1661.4193351268768,None,1662.4026131629944,None,2,0,0.8798339366912842,1662.4026131629944,None,1000,001,02,2021_Nov_02_1620,task-switching-replication,2021.2.3,60.00349065106365,
1,35,experiment,02,standing,noswitch,congruant,solid,square,blue,stimuli/solid-rectangle.png,stimuli/blue-square.png,1,,,,,,,,,,,,,,,,,,,,,,,,,0,0,0,0,0,0,0,0,0,34,34,34,,,,,,,,,,,,,,,,,,,,,,,,,,,,,,,,,,,,,,,,,,,,,,,,,,,,,,,,,,,,,,,,,,,,,,,,,,,,1668.449625968933,None,,,,,,,,,,,,,,,,,,,,,,,,,,,,,,,,,,,,,,,,,,,,,,,1000,001,02,2021_Nov_02_1620,task-switching-replication,2021.2.3,60.00349065106365,
1,36,experiment,02,standing,switch,incongruant,dashed,triangle,blue,stimuli/dashed-rectangle.png,stimuli/blue-triangle.png,2,,,,,,,,,,,,,,,,,,,,,,,,,0,0,0,0,0,0,0,0,0,35,35,35,,,,,0,0,0,0,,,,,,,,,,,,,,,,,,,,,,,,,,,,,,,,,,,,,,,,,,,,,,,,,,,,,,,,,,,,,,,,1671.164200735092,1672.2166500091553,1671.1969499588013,None,,,,,,,,,,,,,,,,,,,,,,,,,,,,,,,,,,,,,,,,1668.6465339660645,None,1669.6308579444885,None,None,0,,1669.6308579444885,None,1000,001,02,2021_Nov_02_1620,task-switching-replication,2021.2.3,60.00349065106365,
1,36,experiment,02,standing,switch,incongruant,dashed,triangle,blue,stimuli/dashed-rectangle.png,stimuli/blue-triangle.png,2,,,,,,,,,,,,,,,,,,,,,,,,,0,0,0,0,0,0,0,0,0,35,35,35,,,,,,,,,,,,,,,,,,,,,,,,,,,,,,,,,,,,,,,,,,,,,,,,,,,,,,,,,,,,,,,,,,,,,,,,,,,,1676.216896057129,None,,,,,,,,,,,,,,,,,,,,,,,,,,,,,,,,,,,,,,,,,,,,,,,1000,001,02,2021_Nov_02_1620,task-switching-replication,2021.2.3,60.00349065106365,
1,37,experiment,02,standing,switch,incongruant,solid,square,blue,stimuli/solid-rectangle.png,stimuli/blue-square.png,1,,,,,,,,,,,,,,,,,,,,,,,,,0,0,0,0,0,0,0,0,0,36,36,36,0,0,0,0,,,,,,,,,,,,,,,,,,,,,,,,,,,,,,,,,,,,,,,,,,,,,,,,,,,,,,,,,,,,,,,,,,,,,,,,,,1678.932093811035,1679.9502310752869,1678.9630551338196,None,,,,,,,,,,,,,,,,,,,,,,,,,,,,,,,,,,1676.4131619930267,None,1677.3981020450592,None,None,0,,1677.3981020450592,None,1000,001,02,2021_Nov_02_1620,task-switching-replication,2021.2.3,60.00349065106365,
1,37,experiment,02,standing,switch,incongruant,solid,square,blue,stimuli/solid-rectangle.png,stimuli/blue-square.png,1,,,,,,,,,,,,,,,,,,,,,,,,,0,0,0,0,0,0,0,0,0,36,36,36,,,,,,,,,,,,,,,,,,,,,,,,,,,,,,,,,,,,,,,,,,,,,,,,,,,,,,,,,,,,,,,,,,,,,,,,,,,,1683.98943400383,None,,,,,,,,,,,,,,,,,,,,,,,,,,,,,,,,,,,,,,,,,,,,,,,1000,001,02,2021_Nov_02_1620,task-switching-replication,2021.2.3,60.00349065106365,
1,38,experiment,02,standing,switch,congruant,dashed,square,blue,stimuli/dashed-rectangle.png,stimuli/blue-square.png,1,,,,,,,,,,,,,,,,,,,,,,,,,0,0,0,0,0,0,0,0,0,37,37,37,,,,,0,0,0,0,,,,,,,,,,,,,,,,,,,,,,,,,,,,,,,,,,,,,,,,,,,,,,,,,,,,,,,,,,,,,,,,1686.7056579113005,1687.7553479671478,1686.7370791435242,None,,,,,,,,,,,,,,,,,,,,,,,,,,,,,,,,,,,,,,,,1684.1860980987549,None,1685.170562028885,None,None,0,,1685.170562028885,None,1000,001,02,2021_Nov_02_1620,task-switching-replication,2021.2.3,60.00349065106365,
1,38,experiment,02,standing,switch,congruant,dashed,square,blue,stimuli/dashed-rectangle.png,stimuli/blue-square.png,1,,,,,,,,,,,,,,,,,,,,,,,,,0,0,0,0,0,0,0,0,0,37,37,37,,,,,,,,,,,,,,,,,,,,,,,,,,,,,,,,,,,,,,,,,,,,,,,,,,,,,,,,,,,,,,,,,,,,,,,,,,,,1691.7650020122528,None,,,,,,,,,,,,,,,,,,,,,,,,,,,,,,,,,,,,,,,,,,,,,,,1000,001,02,2021_Nov_02_1620,task-switching-replication,2021.2.3,60.00349065106365,
1,39,experiment,02,standing,noswitch,congruant,dashed,square,yellow,stimuli/dashed-rectangle.png,stimuli/yellow-square.png,1,,,,,,,,,,,,,,,,,,,,,,,,,0,0,0,0,0,0,0,0,0,38,38,38,,,,,0,0,0,0,,,,,,,,,,,,,,,,,,,,,,,,,,,,,,,,,,,,,,,,,,,,,,,,,,,,,,,,,,,,,,,,1694.4815737724302,1695.5314569473267,1694.5130360126495,None,,,,,,,,,,,,,,,,,,,,,,,,,,,,,,,,,,,,,,,,1691.961608171463,None,1692.9459850788116,None,None,0,,1692.9459850788116,None,1000,001,02,2021_Nov_02_1620,task-switching-replication,2021.2.3,60.00349065106365,
1,39,experiment,02,standing,noswitch,congruant,dashed,square,yellow,stimuli/dashed-rectangle.png,stimuli/yellow-square.png,1,,,,,,,,,,,,,,,,,,,,,,,,,0,0,0,0,0,0,0,0,0,38,38,38,,,,,,,,,,,,,,,,,,,,,,,,,,,,,,,,,,,,,,,,,,,,,,,,,,,,,,,,,,,,,,,,,,,,,,,,,,,,1699.534101009369,None,,,,,,,,,,,,,,,,,,,,,,,,,,,,,,,,,,,,,,,,,,,,,,,1000,001,02,2021_Nov_02_1620,task-switching-replication,2021.2.3,60.00349065106365,
1,40,experiment,02,standing,noswitch,congruant,dashed,square,yellow,stimuli/dashed-rectangle.png,stimuli/yellow-square.png,1,,,,,,,,,,,,,,,,,,,,,,,,,0,0,0,0,0,0,0,0,0,39,39,39,,,,,0,0,0,0,,,,,,,,,,,,,,,,,,,,,,,,,,,,,,,,,,,,,,,,,,,,,,,,,,,,,,,,,,,,,,,,1702.2498077869413,1703.3006701469421,1702.2814140319824,None,,,,,,,,,,,,,,,,,,,,,,,,,,,,,,,,,,,,,,,,1699.7306530475616,None,1700.7151861190796,None,None,0,,1700.7151861190796,None,1000,001,02,2021_Nov_02_1620,task-switching-replication,2021.2.3,60.00349065106365,
1,40,experiment,02,standing,noswitch,congruant,dashed,square,yellow,stimuli/dashed-rectangle.png,stimuli/yellow-square.png,1,,,,,,,,,,,,,,,,,,,,,,,,,0,0,0,0,0,0,0,0,0,39,39,39,,,,,,,,,,,,,,,,,,,,,,,,,,,,,,,,,,,,,,,,,,,,,,,,,,,,,,,,,,,,,,,,,,,,,,,,,,,,1707.2792811393738,None,,,,,,,,,,,,,,,,,,,,,,,,,,,,,,,,,,,,,,,,,,,,,,,1000,001,02,2021_Nov_02_1620,task-switching-replication,2021.2.3,60.00349065106365,
1,41,experiment,02,standing,noswitch,congruant,dashed,square,yellow,stimuli/dashed-rectangle.png,stimuli/yellow-square.png,1,,,,,,,,,,,,,,,,,,,,,,,,,0,0,0,0,0,0,0,0,0,40,40,40,,,,,,,,,,,,,,,,,,,,,,,,,,,,,,,,,,,,,,,,,,,,,,,,,,,,,,,,,,,,,,,,,,,,,,,,,,,,1709.8112411499023,None,,,,,,,,,,,,,,,,,,,,,,,,,,,,,,,,,,,,,,1707.5084609985352,None,1708.4924030303955,None,1,1,1.1746399402618408,1708.4924030303955,None,1000,001,02,2021_Nov_02_1620,task-switching-replication,2021.2.3,60.00349065106365,
1,42,experiment,02,standing,switch,congruant,solid,square,blue,stimuli/solid-rectangle.png,stimuli/blue-square.png,1,,,,,,,,,,,,,,,,,,,,,,,,,0,0,0,0,0,0,0,0,0,41,41,41,0,0,0,0,,,,,,,,,,,,,,,,,,,,,,,,,,,,,,,,,,,,,,,,,,,,,,,,,,,,,,,,,,,,,,,,,,,,,,,,,,1712.5601677417753,1713.6119229793549,1712.5911741256714,None,,,,,,,,,,,,,,,,,,,,,,,,,,,,,,,,,,1710.0402750968933,None,1711.0252361297607,None,None,0,,1711.0252361297607,None,1000,001,02,2021_Nov_02_1620,task-switching-replication,2021.2.3,60.00349065106365,
1,42,experiment,02,standing,switch,congruant,solid,square,blue,stimuli/solid-rectangle.png,stimuli/blue-square.png,1,,,,,,,,,,,,,,,,,,,,,,,,,0,0,0,0,0,0,0,0,0,41,41,41,,,,,,,,,,,,,,,,,,,,,,,,,,,,,,,,,,,,,,,,,,,,,,,,,,,,,,,,,,,,,,,,,,,,,,,,,,,,1717.6156179904938,None,,,,,,,,,,,,,,,,,,,,,,,,,,,,,,,,,,,,,,,,,,,,,,,1000,001,02,2021_Nov_02_1620,task-switching-replication,2021.2.3,60.00349065106365,
1,43,experiment,02,standing,noswitch,incongruant,solid,square,yellow,stimuli/solid-rectangle.png,stimuli/yellow-square.png,2,,,,,,,,,,,,,,,,,,,,,,,,,0,0,0,0,0,0,0,0,0,42,42,42,0,0,0,0,,,,,,,,,,,,,,,,,,,,,,,,,,,,,,,,,,,,,,,,,,,,,,,,,,,,,,,,,,,,,,,,,,,,,,,,,,1720.3310358047484,1721.379765033722,1720.3620369434357,None,,,,,,,,,,,,,,,,,,,,,,,,,,,,,,,,,,1717.8124639987946,None,1718.7968859672546,None,None,0,,1718.7968859672546,None,1000,001,02,2021_Nov_02_1620,task-switching-replication,2021.2.3,60.00349065106365,
1,43,experiment,02,standing,noswitch,incongruant,solid,square,yellow,stimuli/solid-rectangle.png,stimuli/yellow-square.png,2,,,,,,,,,,,,,,,,,,,,,,,,,0,0,0,0,0,0,0,0,0,42,42,42,,,,,,,,,,,,,,,,,,,,,,,,,,,,,,,,,,,,,,,,,,,,,,,,,,,,,,,,,,,,,,,,,,,,,,,,,,,,1725.380452156067,None,,,,,,,,,,,,,,,,,,,,,,,,,,,,,,,,,,,,,,,,,,,,,,,1000,001,02,2021_Nov_02_1620,task-switching-replication,2021.2.3,60.00349065106365,
1,44,experiment,02,standing,switch,incongruant,dashed,square,blue,stimuli/dashed-rectangle.png,stimuli/blue-square.png,1,,,,,,,,,,,,,,,,,,,,,,,,,0,0,0,0,0,0,0,0,0,43,43,43,,,,,0,0,0,0,,,,,,,,,,,,,,,,,,,,,,,,,,,,,,,,,,,,,,,,,,,,,,,,,,,,,,,,,,,,,,,,1728.0964407443998,1729.1450011730194,1728.1278190612793,None,,,,,,,,,,,,,,,,,,,,,,,,,,,,,,,,,,,,,,,,1725.5776629447937,None,1726.5619339942932,None,None,0,,1726.5619339942932,None,1000,001,02,2021_Nov_02_1620,task-switching-replication,2021.2.3,60.00349065106365,
1,44,experiment,02,standing,switch,incongruant,dashed,square,blue,stimuli/dashed-rectangle.png,stimuli/blue-square.png,1,,,,,,,,,,,,,,,,,,,,,,,,,0,0,0,0,0,0,0,0,0,43,43,43,,,,,,,,,,,,,,,,,,,,,,,,,,,,,,,,,,,,,,,,,,,,,,,,,,,,,,,,,,,,,,,,,,,,,,,,,,,,1733.1454751491547,None,,,,,,,,,,,,,,,,,,,,,,,,,,,,,,,,,,,,,,,,,,,,,,,1000,001,02,2021_Nov_02_1620,task-switching-replication,2021.2.3,60.00349065106365,
1,45,experiment,02,standing,switch,congruant,solid,square,blue,stimuli/solid-rectangle.png,stimuli/blue-square.png,1,,,,,,,,,,,,,,,,,,,,,,,,,0,0,0,0,0,0,0,0,0,44,44,44,0,0,0,0,,,,,,,,,,,,,,,,,,,,,,,,,,,,,,,,,,,,,,,,,,,,,,,,,,,,,,,,,,,,,,,,,,,,,,,,,,1735.8615908145903,1736.9112629890442,1735.8925709724426,None,,,,,,,,,,,,,,,,,,,,,,,,,,,,,,,,,,1733.342472076416,None,1734.3261289596558,None,None,0,,1734.3261289596558,None,1000,001,02,2021_Nov_02_1620,task-switching-replication,2021.2.3,60.00349065106365,
1,45,experiment,02,standing,switch,congruant,solid,square,blue,stimuli/solid-rectangle.png,stimuli/blue-square.png,1,,,,,,,,,,,,,,,,,,,,,,,,,0,0,0,0,0,0,0,0,0,44,44,44,,,,,,,,,,,,,,,,,,,,,,,,,,,,,,,,,,,,,,,,,,,,,,,,,,,,,,,,,,,,,,,,,,,,,,,,,,,,1740.9139330387115,None,,,,,,,,,,,,,,,,,,,,,,,,,,,,,,,,,,,,,,,,,,,,,,,1000,001,02,2021_Nov_02_1620,task-switching-replication,2021.2.3,60.00349065106365,
1,46,experiment,02,standing,noswitch,incongruant,solid,triangle,yellow,stimuli/solid-rectangle.png,stimuli/yellow-triangle.png,2,,,,,,,,,,,,,,,,,,,,,,,,,0,0,0,0,0,0,0,0,0,45,45,45,0,0,0,0,,,,,,,,,,,,,,,,,,,,,,,,,,,,,,,,,,,,,,,,,,,,,,,,,,,,,,,,,,,,,,,,,,,,,,,,,,1743.6277627468107,1744.6771161556244,1743.6589710712433,None,,,,,,,,,,,,,,,,,,,,,,,,,,,,,,,,,,1741.1102001667023,None,1742.0929901599884,None,None,0,,1742.0929901599884,None,1000,001,02,2021_Nov_02_1620,task-switching-replication,2021.2.3,60.00349065106365,
1,46,experiment,02,standing,noswitch,incongruant,solid,triangle,yellow,stimuli/solid-rectangle.png,stimuli/yellow-triangle.png,2,,,,,,,,,,,,,,,,,,,,,,,,,0,0,0,0,0,0,0,0,0,45,45,45,,,,,,,,,,,,,,,,,,,,,,,,,,,,,,,,,,,,,,,,,,,,,,,,,,,,,,,,,,,,,,,,,,,,,,,,,,,,1748.6782591342926,None,,,,,,,,,,,,,,,,,,,,,,,,,,,,,,,,,,,,,,,,,,,,,,,1000,001,02,2021_Nov_02_1620,task-switching-replication,2021.2.3,60.00349065106365,
1,47,experiment,02,standing,switch,congruant,dashed,triangle,yellow,stimuli/dashed-rectangle.png,stimuli/yellow-triangle.png,2,,,,,,,,,,,,,,,,,,,,,,,,,0,0,0,0,0,0,0,0,0,46,46,46,,,,,0,0,0,0,,,,,,,,,,,,,,,,,,,,,,,,,,,,,,,,,,,,,,,,,,,,,,,,,,,,,,,,,,,,,,,,1750.7364131212234,1751.7888870239258,1750.7695469856262,None,,,,,,,,,,,,,,,,,,,,,,,,,,,,,,,,,,,,,,,,1748.8747370243073,None,1749.858903169632,None,1,0,0.7838640213012695,1749.858903169632,None,1000,001,02,2021_Nov_02_1620,task-switching-replication,2021.2.3,60.00349065106365,
1,47,experiment,02,standing,switch,congruant,dashed,triangle,yellow,stimuli/dashed-rectangle.png,stimuli/yellow-triangle.png,2,,,,,,,,,,,,,,,,,,,,,,,,,0,0,0,0,0,0,0,0,0,46,46,46,,,,,,,,,,,,,,,,,,,,,,,,,,,,,,,,,,,,,,,,,,,,,,,,,,,,,,,,,,,,,,,,,,,,,,,,,,,,1755.7886199951172,None,,,,,,,,,,,,,,,,,,,,,,,,,,,,,,,,,,,,,,,,,,,,,,,1000,001,02,2021_Nov_02_1620,task-switching-replication,2021.2.3,60.00349065106365,
1,48,experiment,02,standing,switch,incongruant,solid,triangle,blue,stimuli/solid-rectangle.png,stimuli/blue-triangle.png,1,,,,,,,,,,,,,,,,,,,,,,,,,0,0,0,0,0,0,0,0,0,47,47,47,,,,,,,,,,,,,,,,,,,,,,,,,,,,,,,,,,,,,,,,,,,,,,,,,,,,,,,,,,,,,,,,,,,,,,,,,,,,1757.9324049949646,None,,,,,,,,,,,,,,,,,,,,,,,,,,,,,,,,,,,,,,1755.9850690364838,None,1756.9682490825653,None,1,1,0.8485519886016846,1756.9682490825653,None,1000,001,02,2021_Nov_02_1620,task-switching-replication,2021.2.3,60.00349065106365,
1,49,experiment,02,standing,switch,incongruant,dashed,triangle,yellow,stimuli/dashed-rectangle.png,stimuli/yellow-triangle.png,2,,,,,,,,,,,,,,,,,,,,,,,,,0,0,0,0,0,0,0,0,0,48,48,48,,,,,0,0,0,0,,,,,,,,,,,,,,,,,,,,,,,,,,,,,,,,,,,,,,,,,,,,,,,,,,,,,,,,,,,,,,,,1759.7876380681992,1760.839427947998,1759.8205411434174,None,,,,,,,,,,,,,,,,,,,,,,,,,,,,,,,,,,,,,,,,1758.161190032959,None,1759.146700143814,None,1,0,0.5210669040679932,1759.146700143814,None,1000,001,02,2021_Nov_02_1620,task-switching-replication,2021.2.3,60.00349065106365,
1,49,experiment,02,standing,switch,incongruant,dashed,triangle,yellow,stimuli/dashed-rectangle.png,stimuli/yellow-triangle.png,2,,,,,,,,,,,,,,,,,,,,,,,,,0,0,0,0,0,0,0,0,0,48,48,48,,,,,,,,,,,,,,,,,,,,,,,,,,,,,,,,,,,,,,,,,,,,,,,,,,,,,,,,,,,,,,,,,,,,,,,,,,,,1764.8356051445007,None,,,,,,,,,,,,,,,,,,,,,,,,,,,,,,,,,,,,,,,,,,,,,,,1000,001,02,2021_Nov_02_1620,task-switching-replication,2021.2.3,60.00349065106365,
,,,02,,,,,,,,,,,,,,,,,,,,,,,,,,,,,,,,,,0,0,0,0,0,0,0,0,,,,,,,,,,,,,,,,,,,,,,,,,,,,,,,,,,,,,,,,,,,,,,,,,,,,,,,,,,,,,,,,,,,,,,,,,,,,,,,,,,,,,,,,,,,,,,,,,,,,,,,,,,,,,,,,,,,,,,,,,,,,,,,,1000,001,02,2021_Nov_02_1620,task-switching-replication,2021.2.3,60.00349065106365,
2,1,experiment,02,standing,buffer,buffer,dashed,triangle,yellow,stimuli/dashed-rectangle.png,stimuli/yellow-triangle.png,2,,,,,,,,,,,,,,,,,,,,,,,,,0,0,0,0,1,0,1,0,0,0,0,0,,,,,0,0,0,0,,,,,,,,,,,,,,,,,,,,,,,,,,,,,,,,,,,,,,,,,,,,,,,,,,,,,,,,,,,,,,,,1809.3467828750609,1810.3966510295868,1809.3788900375366,None,,,,,,,,,,,,,,,,,,,,,,,,,,,,1765.0325491428375,None,2,6.071337938308716,1765.0325491428375,None,1771.2328209877014,None,1,35.44505500793457,1771.2328209877014,None,1806.8282670974731,None,1807.8120629787445,None,None,0,,1807.8120629787445,None,1000,001,02,2021_Nov_02_1620,task-switching-replication,2021.2.3,60.00349065106365,
2,1,experiment,02,standing,buffer,buffer,dashed,triangle,yellow,stimuli/dashed-rectangle.png,stimuli/yellow-triangle.png,2,,,,,,,,,,,,,,,,,,,,,,,,,0,0,0,0,1,0,1,0,0,0,0,0,,,,,,,,,,,,,,,,,,,,,,,,,,,,,,,,,,,,,,,,,,,,,,,,,,,,,,,,,,,,,,,,,,,,,,,,,,,,1814.399796962738,None,,,,,,,,,,,,,,,,,,,,,,,,,,,,,,,,,,,,,,,,,,,,,,,1000,001,02,2021_Nov_02_1620,task-switching-replication,2021.2.3,60.00349065106365,
2,2,experiment,02,standing,switch,incongruant,solid,triangle,blue,stimuli/solid-rectangle.png,stimuli/blue-triangle.png,1,,,,,,,,,,,,,,,,,,,,,,,,,0,0,0,0,1,0,1,0,0,1,1,1,,,,,,,,,,,,,,,,,,,,,,,,,,,,,,,,,,,,,,,,,,,,,,,,,,,,,,,,,,,,,,,,,,,,,,,,,,,,1816.4852271080017,None,,,,,,,,,,,,,,,,,,,,,,,,,,,,,,,,,,,,,,1814.5965580940247,None,1815.580491065979,None,1,1,0.7602429389953613,1815.580491065979,None,1000,001,02,2021_Nov_02_1620,task-switching-replication,2021.2.3,60.00349065106365,
2,3,experiment,02,standing,noswitch,incongruant,solid,square,yellow,stimuli/solid-rectangle.png,stimuli/yellow-square.png,2,,,,,,,,,,,,,,,,,,,,,,,,,0,0,0,0,1,0,1,0,0,2,2,2,,,,,,,,,,,,,,,,,,,,,,,,,,,,,,,,,,,,,,,,,,,,,,,,,,,,,,,,,,,,,,,,,,,,,,,,,,,,1818.309982061386,None,,,,,,,,,,,,,,,,,,,,,,,,,,,,,,,,,,,,,,1816.71431016922,None,1817.699562072754,None,2,1,0.4813370704650879,1817.699562072754,None,1000,001,02,2021_Nov_02_1620,task-switching-replication,2021.2.3,60.00349065106365,
2,4,experiment,02,standing,switch,congruant,dashed,triangle,yellow,stimuli/dashed-rectangle.png,stimuli/yellow-triangle.png,2,,,,,,,,,,,,,,,,,,,,,,,,,0,0,0,0,1,0,1,0,0,3,3,3,,,,,0,0,0,0,,,,,,,,,,,,,,,,,,,,,,,,,,,,,,,,,,,,,,,,,,,,,,,,,,,,,,,,,,,,,,,,1820.050220131874,1821.1019461154938,1820.082309961319,None,,,,,,,,,,,,,,,,,,,,,,,,,,,,,,,,,,,,,,,,1818.5392639636993,None,1819.5229849815369,None,1,0,0.41579604148864746,1819.5229849815369,None,1000,001,02,2021_Nov_02_1620,task-switching-replication,2021.2.3,60.00349065106365,
2,4,experiment,02,standing,switch,congruant,dashed,triangle,yellow,stimuli/dashed-rectangle.png,stimuli/yellow-triangle.png,2,,,,,,,,,,,,,,,,,,,,,,,,,0,0,0,0,1,0,1,0,0,3,3,3,,,,,,,,,,,,,,,,,,,,,,,,,,,,,,,,,,,,,,,,,,,,,,,,,,,,,,,,,,,,,,,,,,,,,,,,,,,,1825.1030700206757,None,,,,,,,,,,,,,,,,,,,,,,,,,,,,,,,,,,,,,,,,,,,,,,,1000,001,02,2021_Nov_02_1620,task-switching-replication,2021.2.3,60.00349065106365,
2,5,experiment,02,standing,switch,incongruant,solid,square,blue,stimuli/solid-rectangle.png,stimuli/blue-square.png,1,,,,,,,,,,,,,,,,,,,,,,,,,0,0,0,0,1,0,1,0,0,4,4,4,0,0,0,0,,,,,,,,,,,,,,,,,,,,,,,,,,,,,,,,,,,,,,,,,,,,,,,,,,,,,,,,,,,,,,,,,,,,,,,,,,1827.0440329313278,1828.093938112259,1827.0758509635925,None,,,,,,,,,,,,,,,,,,,,,,,,,,,,,,,,,,1825.3005011081696,None,1826.2844560146332,None,2,0,0.6385481357574463,1826.2844560146332,None,1000,001,02,2021_Nov_02_1620,task-switching-replication,2021.2.3,60.00349065106365,
2,5,experiment,02,standing,switch,incongruant,solid,square,blue,stimuli/solid-rectangle.png,stimuli/blue-square.png,1,,,,,,,,,,,,,,,,,,,,,,,,,0,0,0,0,1,0,1,0,0,4,4,4,,,,,,,,,,,,,,,,,,,,,,,,,,,,,,,,,,,,,,,,,,,,,,,,,,,,,,,,,,,,,,,,,,,,,,,,,,,,1832.0961401462555,None,,,,,,,,,,,,,,,,,,,,,,,,,,,,,,,,,,,,,,,,,,,,,,,1000,001,02,2021_Nov_02_1620,task-switching-replication,2021.2.3,60.00349065106365,
,,,,,,,,,,,,,,,,,,,,,,,,,,,,,,,,,,,,,,,,,,,,,,,,,,,,,,,,,,,,,,,,,,,,,,,,,,,,,,,,,,,,,,,,,,,,,,,,,,,,,,,,,,,,,,,,,,,,,,,,,,,,,,,,,,,,,,,,,,,,,,,,,,,,,,,,,,,,,,,,,,,1832.2935950756073,None,1833.2780921459198,None,None,0,,1833.2780921459198,None,,,,,,,,
