blockNum,trialNum,trialType,condition,posture,switchTrialType,congruantTrialType,cueType,shapeType,shapeColor,cueFileName,stimuliFileName,correctAnswer,untimedTrials.thisRepN,untimedTrials.thisTrialN,untimedTrials.thisN,untimedTrials.thisIndex,selectSolid1.thisRepN,selectSolid1.thisTrialN,selectSolid1.thisN,selectSolid1.thisIndex,selectDashed1.thisRepN,selectDashed1.thisTrialN,selectDashed1.thisN,selectDashed1.thisIndex,timedTrials.thisRepN,timedTrials.thisTrialN,timedTrials.thisN,timedTrials.thisIndex,selectSolid2.thisRepN,selectSolid2.thisTrialN,selectSolid2.thisN,selectSolid2.thisIndex,selectDashed2.thisRepN,selectDashed2.thisTrialN,selectDashed2.thisN,selectDashed2.thisIndex,postures.thisRepN,postures.thisTrialN,postures.thisN,postures.thisIndex,blocks.thisRepN,blocks.thisTrialN,blocks.thisN,blocks.thisIndex,trials.thisRepN,trials.thisTrialN,trials.thisN,trials.thisIndex,selectSolid.thisRepN,selectSolid.thisTrialN,selectSolid.thisN,selectSolid.thisIndex,selectDashed.thisRepN,selectDashed.thisTrialN,selectDashed.thisN,selectDashed.thisIndex,text_3.started,text_3.stopped,key_resp_2.keys,key_resp_2.rt,key_resp_2.started,key_resp_2.stopped,image_4.started,image_4.stopped,key_resp_4.keys,key_resp_4.rt,key_resp_4.started,key_resp_4.stopped,image_5.started,image_5.stopped,key_resp_5.keys,key_resp_5.rt,key_resp_5.started,key_resp_5.stopped,image_6.started,image_6.stopped,key_resp_6.keys,key_resp_6.rt,key_resp_6.started,key_resp_6.stopped,image_7.started,image_7.stopped,key_resp_7.keys,key_resp_7.rt,key_resp_7.started,key_resp_7.stopped,image_8.started,image_8.stopped,key_resp_8.keys,key_resp_8.rt,key_resp_8.started,key_resp_8.stopped,image_9.started,image_9.stopped,key_resp_9.keys,key_resp_9.rt,key_resp_9.started,key_resp_9.stopped,image_10.started,image_10.stopped,key_resp_10.keys,key_resp_10.rt,key_resp_10.started,key_resp_10.stopped,image_11.started,image_11.stopped,key_resp_11.keys,key_resp_11.rt,key_resp_11.started,key_resp_11.stopped,cue_untimed_image.started,cue_untimed_image.stopped,stimuli_untimed_image.started,stimuli_untimed_image.stopped,untimed_resp.keys,untimed_resp.corr,untimed_resp.rt,untimed_resp.started,untimed_resp.stopped,sound_1.started,sound_1.stopped,image_2.started,image_2.stopped,text_2.started,text_2.stopped,sound_2.started,sound_2.stopped,image_3.started,image_3.stopped,image_12.started,image_12.stopped,key_resp_12.keys,key_resp_12.rt,key_resp_12.started,key_resp_12.stopped,image_13.started,image_13.stopped,key_resp_13.keys,key_resp_13.rt,key_resp_13.started,key_resp_13.stopped,cue_timed_image.started,cue_timed_image.stopped,stimuli_timed_image.started,stimuli_timed_image.stopped,timed_resp.keys,timed_resp.corr,timed_resp.rt,timed_resp.started,timed_resp.stopped,image.started,image.stopped,key_response.keys,key_response.rt,key_response.started,key_response.stopped,text.started,text.stopped,key_resp.keys,key_resp.rt,key_resp.started,key_resp.stopped,cue_image.started,cue_image.stopped,stimuli_image.started,stimuli_image.stopped,exp_resp.keys,exp_resp.corr,exp_resp.rt,exp_resp.started,exp_resp.stopped,text_4.started,text_4.stopped,key_resp_3.keys,key_resp_3.rt,key_resp_3.started,key_resp_3.stopped,participant,session,condition,date,expName,psychopyVersion,frameRate,
,,,01,,,,,,,,,,,,,,,,,,,,,,,,,,,,,,,,,,,,,,,,,,,,,,,,,,,,,,122.6486828327179,None,2,11.600188970565796,122.6486828327179,None,,,,,,,,,,,,,,,,,,,,,,,,,,,,,,,,,,,,,,,,,,,,,,,,,,,,,,,,,,,,,,,,,,,,,,,,,,,,,,,,,,,,,,,,,,,,,,,,,,,,,,,,,,,,,,,,,,,,1000,001,01,2021_Nov_02_1332,task-switching-replication,2021.2.3,59.869108266162705,
,,,01,,,,,,,,,,,,,,,,,,,,,,,,,,,,,,,,,,,,,,,,,,,,,,,,,,,,,,,,,,,,134.2894139289856,None,2,17.61173105239868,134.2894139289856,None,,,,,,,,,,,,,,,,,,,,,,,,,,,,,,,,,,,,,,,,,,,,,,,,,,,,,,,,,,,,,,,,,,,,,,,,,,,,,,,,,,,,,,,,,,,,,,,,,,,,,,,,,,,,,,1000,001,01,2021_Nov_02_1332,task-switching-replication,2021.2.3,59.869108266162705,
,,,01,,,,,,,,,,,,,,,,,,,,,,,,,,,,,,,,,,,,,,,,,,,,,,,,,,,,,,,,,,,,,,,,,,151.94530391693115,None,1,5.23669695854187,151.94530391693115,None,,,,,,,,,,,,,,,,,,,,,,,,,,,,,,,,,,,,,,,,,,,,,,,,,,,,,,,,,,,,,,,,,,,,,,,,,,,,,,,,,,,,,,,,,,,,,,,,,,,,,,,,1000,001,01,2021_Nov_02_1332,task-switching-replication,2021.2.3,59.869108266162705,
,,,01,,,,,,,,,,,,,,,,,,,,,,,,,,,,,,,,,,,,,,,,,,,,,,,,,,,,,,,,,,,,,,,,,,,,,,,,157.23696780204773,None,2,3.752070903778076,157.23696780204773,None,,,,,,,,,,,,,,,,,,,,,,,,,,,,,,,,,,,,,,,,,,,,,,,,,,,,,,,,,,,,,,,,,,,,,,,,,,,,,,,,,,,,,,,,,,,,,,,,,,1000,001,01,2021_Nov_02_1332,task-switching-replication,2021.2.3,59.869108266162705,
,,,01,,,,,,,,,,,,,,,,,,,,,,,,,,,,,,,,,,,,,,,,,,,,,,,,,,,,,,,,,,,,,,,,,,,,,,,,,,,,,,161.0495319366455,None,2,10.786434173583984,161.0495319366455,None,,,,,,,,,,,,,,,,,,,,,,,,,,,,,,,,,,,,,,,,,,,,,,,,,,,,,,,,,,,,,,,,,,,,,,,,,,,,,,,,,,,,,,,,,,,,1000,001,01,2021_Nov_02_1332,task-switching-replication,2021.2.3,59.869108266162705,
,,,01,,,,,,,,,,,,,,,,,,,,,,,,,,,,,,,,,,,,,,,,,,,,,,,,,,,,,,,,,,,,,,,,,,,,,,,,,,,,,,,,,,,,171.87986588478088,None,1,3.8786909580230713,171.87986588478088,None,,,,,,,,,,,,,,,,,,,,,,,,,,,,,,,,,,,,,,,,,,,,,,,,,,,,,,,,,,,,,,,,,,,,,,,,,,,,,,,,,,,,,,1000,001,01,2021_Nov_02_1332,task-switching-replication,2021.2.3,59.869108266162705,
,,,01,,,,,,,,,,,,,,,,,,,,,,,,,,,,,,,,,,,,,,,,,,,,,,,,,,,,,,,,,,,,,,,,,,,,,,,,,,,,,,,,,,,,,,,,,,175.80940985679626,None,2,2.8416588306427,175.80940985679626,None,,,,,,,,,,,,,,,,,,,,,,,,,,,,,,,,,,,,,,,,,,,,,,,,,,,,,,,,,,,,,,,,,,,,,,,,,,,,,,,,1000,001,01,2021_Nov_02_1332,task-switching-replication,2021.2.3,59.869108266162705,
,,,01,,,,,,,,,,,,,,,,,,,,,,,,,,,,,,,,,,,,,,,,,,,,,,,,,,,,,,,,,,,,,,,,,,,,,,,,,,,,,,,,,,,,,,,,,,,,,,,,178.6955008506775,None,2,9.543133020401001,178.6955008506775,None,,,,,,,,,,,,,,,,,,,,,,,,,,,,,,,,,,,,,,,,,,,,,,,,,,,,,,,,,,,,,,,,,,,,,,,,,,1000,001,01,2021_Nov_02_1332,task-switching-replication,2021.2.3,59.869108266162705,
,,,01,,,,,,,,,,,,,,,,,,,,,,,,,,,,,,,,,,,,,,,,,,,,,,,,,,,,,,,,,,,,,,,,,,,,,,,,,,,,,,,,,,,,,,,,,,,,,,,,,,,,,,188.2704999446869,None,1,4.582939863204956,188.2704999446869,None,,,,,,,,,,,,,,,,,,,,,,,,,,,,,,,,,,,,,,,,,,,,,,,,,,,,,,,,,,,,,,,,,,,,1000,001,01,2021_Nov_02_1332,task-switching-replication,2021.2.3,59.869108266162705,
1,1,untimed,01,standing,buffer,buffer,solid,triangle,yellow,stimuli/solid-rectangle.png,stimuli/yellow-triangle.png,2,0,0,0,0,0,0,0,0,,,,,,,,,,,,,,,,,,,,,,,,,,,,,,,,,,,,,,,,,,,,,,,,,,,,,,,,,,,,,,,,,,,,,,,,,,,,,,,,,,,,,,,,,,,192.91108202934265,None,193.89622902870178,None,1,0,0.630256175994873,193.89622902870178,None,194.55640573501586,195.5676109790802,194.57208395004272,None,,,,,,,,,,,,,,,,,,,,,,,,,,,,,,,,,,,,,,,,,,,,,,,,,,,,,,,1000,001,01,2021_Nov_02_1332,task-switching-replication,2021.2.3,59.869108266162705,
1,1,untimed,01,standing,buffer,buffer,solid,triangle,yellow,stimuli/solid-rectangle.png,stimuli/yellow-triangle.png,2,0,0,0,0,,,,,,,,,,,,,,,,,,,,,,,,,,,,,,,,,,,,,,,,,,,,,,,,,,,,,,,,,,,,,,,,,,,,,,,,,,,,,,,,,,,,,,,,,,,,,,,,,,,,,,,,,,,,199.57447290420532,None,,,,,,,,,,,,,,,,,,,,,,,,,,,,,,,,,,,,,,,,,,,,,,,,,,,,,1000,001,01,2021_Nov_02_1332,task-switching-replication,2021.2.3,59.869108266162705,
1,2,untimed,01,standing,switch,congruant,dashed,square,yellow,stimuli/dashed-rectangle.png,stimuli/yellow-square.png,2,0,1,1,1,,,,,,,,,,,,,,,,,,,,,,,,,,,,,,,,,,,,,,,,,,,,,,,,,,,,,,,,,,,,,,,,,,,,,,,,,,,,,,,,,,,,,,,,,,,,,,,199.78038096427917,None,200.7630820274353,None,2,1,0.8351480960845947,200.7630820274353,None,,,,,201.63911294937134,None,,,,,,,,,,,,,,,,,,,,,,,,,,,,,,,,,,,,,,,,,,,,,,,,,,,,,1000,001,01,2021_Nov_02_1332,task-switching-replication,2021.2.3,59.869108266162705,
1,3,untimed,01,standing,noswitch,incongruant,dashed,triangle,yellow,stimuli/dashed-rectangle.png,stimuli/yellow-triangle.png,1,0,2,2,2,,,,,0,0,0,0,,,,,,,,,,,,,,,,,,,,,,,,,,,,,,,,,,,,,,,,,,,,,,,,,,,,,,,,,,,,,,,,,,,,,,,,,,,,,,,,,,,,,,,201.84693694114685,None,202.82847094535828,None,2,0,0.9110848903656006,202.82847094535828,None,,,,,,,203.77089281082152,204.78229188919067,203.78650093078613,None,,,,,,,,,,,,,,,,,,,,,,,,,,,,,,,,,,,,,,,,,,,,,,,,,1000,001,01,2021_Nov_02_1332,task-switching-replication,2021.2.3,59.869108266162705,
1,3,untimed,01,standing,noswitch,incongruant,dashed,triangle,yellow,stimuli/dashed-rectangle.png,stimuli/yellow-triangle.png,1,0,2,2,2,,,,,,,,,,,,,,,,,,,,,,,,,,,,,,,,,,,,,,,,,,,,,,,,,,,,,,,,,,,,,,,,,,,,,,,,,,,,,,,,,,,,,,,,,,,,,,,,,,,,,,,,,,,,208.79190492630005,None,,,,,,,,,,,,,,,,,,,,,,,,,,,,,,,,,,,,,,,,,,,,,,,,,,,,,1000,001,01,2021_Nov_02_1332,task-switching-replication,2021.2.3,59.869108266162705,
1,4,untimed,01,standing,switch,congruant,solid,square,blue,stimuli/solid-rectangle.png,stimuli/blue-square.png,1,0,3,3,3,0,0,0,0,,,,,,,,,,,,,,,,,,,,,,,,,,,,,,,,,,,,,,,,,,,,,,,,,,,,,,,,,,,,,,,,,,,,,,,,,,,,,,,,,,,,,,,,,,,208.99697089195251,None,209.97862100601196,None,2,0,0.9490399360656738,209.97862100601196,None,210.97310276031493,211.97948598861694,210.98771786689758,None,,,,,,,,,,,,,,,,,,,,,,,,,,,,,,,,,,,,,,,,,,,,,,,,,,,,,,,1000,001,01,2021_Nov_02_1332,task-switching-replication,2021.2.3,59.869108266162705,
1,4,untimed,01,standing,switch,congruant,solid,square,blue,stimuli/solid-rectangle.png,stimuli/blue-square.png,1,0,3,3,3,,,,,,,,,,,,,,,,,,,,,,,,,,,,,,,,,,,,,,,,,,,,,,,,,,,,,,,,,,,,,,,,,,,,,,,,,,,,,,,,,,,,,,,,,,,,,,,,,,,,,,,,,,,,215.99873089790344,None,,,,,,,,,,,,,,,,,,,,,,,,,,,,,,,,,,,,,,,,,,,,,,,,,,,,,1000,001,01,2021_Nov_02_1332,task-switching-replication,2021.2.3,59.869108266162705,
1,5,untimed,01,standing,noswitch,congruant,solid,square,blue,stimuli/solid-rectangle.png,stimuli/blue-square.png,1,0,4,4,4,,,,,,,,,,,,,,,,,,,,,,,,,,,,,,,,,,,,,,,,,,,,,,,,,,,,,,,,,,,,,,,,,,,,,,,,,,,,,,,,,,,,,,,,,,,,,,,216.19662880897522,None,217.17112684249878,None,1,1,0.537390947341919,217.17112684249878,None,,,,,217.7643449306488,None,,,,,,,,,,,,,,,,,,,,,,,,,,,,,,,,,,,,,,,,,,,,,,,,,,,,,1000,001,01,2021_Nov_02_1332,task-switching-replication,2021.2.3,59.869108266162705,
1,6,untimed,01,standing,noswitch,incongruant,solid,triangle,yellow,stimuli/solid-rectangle.png,stimuli/yellow-triangle.png,2,0,5,5,5,,,,,,,,,,,,,,,,,,,,,,,,,,,,,,,,,,,,,,,,,,,,,,,,,,,,,,,,,,,,,,,,,,,,,,,,,,,,,,,,,,,,,,,,,,,,,,,217.98047590255737,None,218.96347784996033,None,2,1,0.5107080936431885,218.96347784996033,None,,,,,219.55599403381348,None,,,,,,,,,,,,,,,,,,,,,,,,,,,,,,,,,,,,,,,,,,,,,,,,,,,,,1000,001,01,2021_Nov_02_1332,task-switching-replication,2021.2.3,59.869108266162705,
1,7,untimed,01,standing,switch,congruant,dashed,square,blue,stimuli/dashed-rectangle.png,stimuli/blue-square.png,2,0,6,6,6,,,,,,,,,,,,,,,,,,,,,,,,,,,,,,,,,,,,,,,,,,,,,,,,,,,,,,,,,,,,,,,,,,,,,,,,,,,,,,,,,,,,,,,,,,,,,,,219.77325892448425,None,220.75468802452087,None,2,1,0.5148720741271973,220.75468802452087,None,,,,,221.31483483314514,None,,,,,,,,,,,,,,,,,,,,,,,,,,,,,,,,,,,,,,,,,,,,,,,,,,,,,1000,001,01,2021_Nov_02_1332,task-switching-replication,2021.2.3,59.869108266162705,
1,8,untimed,01,standing,noswitch,incongruant,dashed,triangle,blue,stimuli/dashed-rectangle.png,stimuli/blue-triangle.png,1,0,7,7,7,,,,,,,,,,,,,,,,,,,,,,,,,,,,,,,,,,,,,,,,,,,,,,,,,,,,,,,,,,,,,,,,,,,,,,,,,,,,,,,,,,,,,,,,,,,,,,,221.53241300582886,None,222.51452493667603,None,1,1,1.3800790309906006,222.51452493667603,None,,,,,223.98566484451294,None,,,,,,,,,,,,,,,,,,,,,,,,,,,,,,,,,,,,,,,,,,,,,,,,,,,,,1000,001,01,2021_Nov_02_1332,task-switching-replication,2021.2.3,59.869108266162705,
1,9,untimed,01,standing,switch,congruant,solid,triangle,blue,stimuli/solid-rectangle.png,stimuli/blue-triangle.png,1,0,8,8,8,0,0,0,0,,,,,,,,,,,,,,,,,,,,,,,,,,,,,,,,,,,,,,,,,,,,,,,,,,,,,,,,,,,,,,,,,,,,,,,,,,,,,,,,,,,,,,,,,,,224.19131183624268,None,225.17138695716858,None,2,0,0.9109320640563965,225.17138695716858,None,226.1284066915512,227.14133596420288,226.14676690101624,None,,,,,,,,,,,,,,,,,,,,,,,,,,,,,,,,,,,,,,,,,,,,,,,,,,,,,,,1000,001,01,2021_Nov_02_1332,task-switching-replication,2021.2.3,59.869108266162705,
1,9,untimed,01,standing,switch,congruant,solid,triangle,blue,stimuli/solid-rectangle.png,stimuli/blue-triangle.png,1,0,8,8,8,,,,,,,,,,,,,,,,,,,,,,,,,,,,,,,,,,,,,,,,,,,,,,,,,,,,,,,,,,,,,,,,,,,,,,,,,,,,,,,,,,,,,,,,,,,,,,,,,,,,,,,,,,,,231.15886783599854,None,,,,,,,,,,,,,,,,,,,,,,,,,,,,,,,,,,,,,,,,,,,,,,,,,,,,,1000,001,01,2021_Nov_02_1332,task-switching-replication,2021.2.3,59.869108266162705,
1,10,untimed,01,standing,switch,congruant,dashed,triangle,blue,stimuli/dashed-rectangle.png,stimuli/blue-triangle.png,1,0,9,9,9,,,,,,,,,,,,,,,,,,,,,,,,,,,,,,,,,,,,,,,,,,,,,,,,,,,,,,,,,,,,,,,,,,,,,,,,,,,,,,,,,,,,,,,,,,,,,,,231.3444058895111,None,232.32458686828613,None,1,1,1.1002140045166016,232.32458686828613,None,,,,,233.51046586036682,None,,,,,,,,,,,,,,,,,,,,,,,,,,,,,,,,,,,,,,,,,,,,,,,,,,,,,1000,001,01,2021_Nov_02_1332,task-switching-replication,2021.2.3,59.869108266162705,
1,11,untimed,01,standing,switch,incongruant,solid,square,yellow,stimuli/solid-rectangle.png,stimuli/yellow-square.png,2,0,10,10,10,,,,,,,,,,,,,,,,,,,,,,,,,,,,,,,,,,,,,,,,,,,,,,,,,,,,,,,,,,,,,,,,,,,,,,,,,,,,,,,,,,,,,,,,,,,,,,,233.71650195121765,None,234.6970248222351,None,2,1,1.061366081237793,234.6970248222351,None,,,,,235.87372589111328,None,,,,,,,,,,,,,,,,,,,,,,,,,,,,,,,,,,,,,,,,,,,,,,,,,,,,,1000,001,01,2021_Nov_02_1332,task-switching-replication,2021.2.3,59.869108266162705,
1,12,untimed,01,standing,switch,incongruant,dashed,triangle,yellow,stimuli/dashed-rectangle.png,stimuli/yellow-triangle.png,1,0,11,11,11,,,,,0,0,0,0,,,,,,,,,,,,,,,,,,,,,,,,,,,,,,,,,,,,,,,,,,,,,,,,,,,,,,,,,,,,,,,,,,,,,,,,,,,,,,,,,,,,,,,236.096825838089,None,237.06711196899414,None,2,0,0.9504580497741699,237.06711196899414,None,,,,,,,238.12434947490692,239.13968992233276,238.1385040283203,None,,,,,,,,,,,,,,,,,,,,,,,,,,,,,,,,,,,,,,,,,,,,,,,,,1000,001,01,2021_Nov_02_1332,task-switching-replication,2021.2.3,59.869108266162705,
1,12,untimed,01,standing,switch,incongruant,dashed,triangle,yellow,stimuli/dashed-rectangle.png,stimuli/yellow-triangle.png,1,0,11,11,11,,,,,,,,,,,,,,,,,,,,,,,,,,,,,,,,,,,,,,,,,,,,,,,,,,,,,,,,,,,,,,,,,,,,,,,,,,,,,,,,,,,,,,,,,,,,,,,,,,,,,,,,,,,,243.14234685897827,None,,,,,,,,,,,,,,,,,,,,,,,,,,,,,,,,,,,,,,,,,,,,,,,,,,,,,1000,001,01,2021_Nov_02_1332,task-switching-replication,2021.2.3,59.869108266162705,
,,,01,,,,,,,,,,,,,,,,,,,,,,,,,,,,,,,,,,,,,,,,,,,,,,,,,,,,,,,,,,,,,,,,,,,,,,,,,,,,,,,,,,,,,,,,,,,,,,,,,,,,,,,,,,,,,,,,,,,,,,,,,,,,,,,243.3380470275879,None,2,9.173292875289917,243.3380470275879,None,,,,,,,,,,,,,,,,,,,,,,,,,,,,,,,,,,,,,,,,,,,1000,001,01,2021_Nov_02_1332,task-switching-replication,2021.2.3,59.869108266162705,
,,,01,,,,,,,,,,,,,,,,,,,,,,,,,,,,,,,,,,,,,,,,,,,,,,,,,,,,,,,,,,,,,,,,,,,,,,,,,,,,,,,,,,,,,,,,,,,,,,,,,,,,,,,,,,,,,,,,,,,,,,,,,,,,,,,,,,,,,252.5803828239441,None,2,15.103111982345581,252.5803828239441,None,,,,,,,,,,,,,,,,,,,,,,,,,,,,,,,,,,,,,1000,001,01,2021_Nov_02_1332,task-switching-replication,2021.2.3,59.869108266162705,
1,1,timed,01,standing,buffer,buffer,dashed,triangle,blue,stimuli/dashed-rectangle.png,stimuli/blue-triangle.png,1,,,,,,,,,,,,,0,0,0,0,,,,,,,,,,,,,,,,,,,,,,,,,,,,,,,,,,,,,,,,,,,,,,,,,,,,,,,,,,,,,,,,,,,,,,,,,,,,,,,,,,,,,,,,,,,,,,,,269.4336009025574,None,,,,,,,,,,,,,,,,,267.79353189468384,None,268.7737410068512,None,1,1,0.5542018413543701,268.7737410068512,None,,,,,,,,,,,,,,,,,,,,,,,,,,,,1000,001,01,2021_Nov_02_1332,task-switching-replication,2021.2.3,59.869108266162705,
1,2,timed,01,standing,switch,congruant,solid,triangle,blue,stimuli/solid-rectangle.png,stimuli/blue-triangle.png,1,,,,,,,,,,,,,0,1,1,1,0,0,0,0,,,,,,,,,,,,,,,,,,,,,,,,,,,,,,,,,,,,,,,,,,,,,,,,,,,,,,,,,,,,,,,,,,,,,,,,,,,,,,,,,,,,,,,,271.4193636417389,272.44926285743713,271.4489848613739,None,,,,,,,,,,,,,,,,,,,269.65632700920105,None,270.6354229450226,None,2,0,0.6990261077880859,270.6354229450226,None,,,,,,,,,,,,,,,,,,,,,,,,,,,,1000,001,01,2021_Nov_02_1332,task-switching-replication,2021.2.3,59.869108266162705,
1,2,timed,01,standing,switch,congruant,solid,triangle,blue,stimuli/solid-rectangle.png,stimuli/blue-triangle.png,1,,,,,,,,,,,,,0,1,1,1,,,,,,,,,,,,,,,,,,,,,,,,,,,,,,,,,,,,,,,,,,,,,,,,,,,,,,,,,,,,,,,,,,,,,,,,,,,,,,,,,,,,,,,,,,,,,,,,276.4476549625397,None,,,,,,,,,,,,,,,,,,,,,,,,,,,,,,,,,,,,,,,,,,,,,,,,,,,,,1000,001,01,2021_Nov_02_1332,task-switching-replication,2021.2.3,59.869108266162705,
1,3,timed,01,standing,noswitch,congruant,solid,triangle,blue,stimuli/solid-rectangle.png,stimuli/blue-triangle.png,1,,,,,,,,,,,,,0,2,2,2,,,,,,,,,,,,,,,,,,,,,,,,,,,,,,,,,,,,,,,,,,,,,,,,,,,,,,,,,,,,,,,,,,,,,,,,,,,,,,,,,,,,,,,,,,,,,,,,278.13737988471985,None,,,,,,,,,,,,,,,,,276.65966391563416,None,277.6328549385071,None,1,1,0.4104039669036865,277.6328549385071,None,,,,,,,,,,,,,,,,,,,,,,,,,,,,1000,001,01,2021_Nov_02_1332,task-switching-replication,2021.2.3,59.869108266162705,
1,4,timed,01,standing,switch,congruant,dashed,triangle,yellow,stimuli/dashed-rectangle.png,stimuli/yellow-triangle.png,1,,,,,,,,,,,,,0,3,3,3,,,,,,,,,,,,,,,,,,,,,,,,,,,,,,,,,,,,,,,,,,,,,,,,,,,,,,,,,,,,,,,,,,,,,,,,,,,,,,,,,,,,,,,,,,,,,,,,280.2603328227997,None,,,,,,,,,,,,,,,,,278.3486008644104,None,279.3216178417206,None,1,1,0.8324880599975586,279.3216178417206,None,,,,,,,,,,,,,,,,,,,,,,,,,,,,1000,001,01,2021_Nov_02_1332,task-switching-replication,2021.2.3,59.869108266162705,
1,5,timed,01,standing,switch,congruant,solid,square,blue,stimuli/solid-rectangle.png,stimuli/blue-square.png,1,,,,,,,,,,,,,0,4,4,4,,,,,,,,,,,,,,,,,,,,,,,,,,,,,,,,,,,,,,,,,,,,,,,,,,,,,,,,,,,,,,,,,,,,,,,,,,,,,,,,,,,,,,,,,,,,,,,,282.5469000339508,None,,,,,,,,,,,,,,,,,280.4723789691925,None,281.44539284706116,None,1,1,0.9687159061431885,281.44539284706116,None,,,,,,,,,,,,,,,,,,,,,,,,,,,,1000,001,01,2021_Nov_02_1332,task-switching-replication,2021.2.3,59.869108266162705,
1,6,timed,01,standing,noswitch,incongruant,solid,triangle,yellow,stimuli/solid-rectangle.png,stimuli/yellow-triangle.png,2,,,,,,,,,,,,,0,5,5,5,,,,,,,,,,,,,,,,,,,,,,,,,,,,,,,,,,,,,,,,,,,,,,,,,,,,,,,,,,,,,,,,,,,,,,,,,,,,,,,,,,,,,,,,,,,,,,,,284.3466148376465,None,,,,,,,,,,,,,,,,,282.75874185562134,None,283.7297248840332,None,2,1,0.48764491081237793,283.7297248840332,None,,,,,,,,,,,,,,,,,,,,,,,,,,,,1000,001,01,2021_Nov_02_1332,task-switching-replication,2021.2.3,59.869108266162705,
1,7,timed,01,standing,noswitch,congruant,solid,square,yellow,stimuli/solid-rectangle.png,stimuli/yellow-square.png,2,,,,,,,,,,,,,0,6,6,6,,,,,,,,,,,,,,,,,,,,,,,,,,,,,,,,,,,,,,,,,,,,,,,,,,,,,,,,,,,,,,,,,,,,,,,,,,,,,,,,,,,,,,,,,,,,,,,,286.14459800720215,None,,,,,,,,,,,,,,,,,284.5585968494415,None,285.531210899353,None,2,1,0.4779388904571533,285.531210899353,None,,,,,,,,,,,,,,,,,,,,,,,,,,,,1000,001,01,2021_Nov_02_1332,task-switching-replication,2021.2.3,59.869108266162705,
1,8,timed,01,standing,switch,congruant,dashed,square,yellow,stimuli/dashed-rectangle.png,stimuli/yellow-square.png,2,,,,,,,,,,,,,0,7,7,7,,,,,0,0,0,0,,,,,,,,,,,,,,,,,,,,,,,,,,,,,,,,,,,,,,,,,,,,,,,,,,,,,,,,,,,,,,,,,,,,,,,,,,,,,,,,,,,,,,,,,,288.24923145771027,289.2875030040741,288.2725348472595,None,,,,,,,,,,,,,286.3567728996277,None,287.3294839859009,None,1,0,0.8386831283569336,287.3294839859009,None,,,,,,,,,,,,,,,,,,,,,,,,,,,,1000,001,01,2021_Nov_02_1332,task-switching-replication,2021.2.3,59.869108266162705,
1,8,timed,01,standing,switch,congruant,dashed,square,yellow,stimuli/dashed-rectangle.png,stimuli/yellow-square.png,2,,,,,,,,,,,,,0,7,7,7,,,,,,,,,,,,,,,,,,,,,,,,,,,,,,,,,,,,,,,,,,,,,,,,,,,,,,,,,,,,,,,,,,,,,,,,,,,,,,,,,,,,,,,,,,,,,,,,293.2787809371948,None,,,,,,,,,,,,,,,,,,,,,,,,,,,,,,,,,,,,,,,,,,,,,,,,,,,,,1000,001,01,2021_Nov_02_1332,task-switching-replication,2021.2.3,59.869108266162705,
1,9,timed,01,standing,switch,incongruant,solid,square,blue,stimuli/solid-rectangle.png,stimuli/blue-square.png,1,,,,,,,,,,,,,0,8,8,8,,,,,,,,,,,,,,,,,,,,,,,,,,,,,,,,,,,,,,,,,,,,,,,,,,,,,,,,,,,,,,,,,,,,,,,,,,,,,,,,,,,,,,,,,,,,,,,,295.29504680633545,None,,,,,,,,,,,,,,,,,293.49077701568604,None,294.4644830226898,None,1,1,0.7265529632568359,294.4644830226898,None,,,,,,,,,,,,,,,,,,,,,,,,,,,,1000,001,01,2021_Nov_02_1332,task-switching-replication,2021.2.3,59.869108266162705,
1,10,timed,01,standing,switch,incongruant,dashed,square,yellow,stimuli/dashed-rectangle.png,stimuli/yellow-square.png,2,,,,,,,,,,,,,0,9,9,9,,,,,,,,,,,,,,,,,,,,,,,,,,,,,,,,,,,,,,,,,,,,,,,,,,,,,,,,,,,,,,,,,,,,,,,,,,,,,,,,,,,,,,,,,,,,,,,,296.9340069293976,None,,,,,,,,,,,,,,,,,295.50756883621216,None,296.4803738594055,None,2,1,0.33489394187927246,296.4803738594055,None,,,,,,,,,,,,,,,,,,,,,,,,,,,,1000,001,01,2021_Nov_02_1332,task-switching-replication,2021.2.3,59.869108266162705,
1,11,timed,01,standing,switch,congruant,solid,triangle,yellow,stimuli/solid-rectangle.png,stimuli/yellow-triangle.png,2,,,,,,,,,,,,,0,10,10,10,,,,,,,,,,,,,,,,,,,,,,,,,,,,,,,,,,,,,,,,,,,,,,,,,,,,,,,,,,,,,,,,,,,,,,,,,,,,,,,,,,,,,,,,,,,,,,,,299.43661189079285,None,,,,,,,,,,,,,,,,,297.14612793922424,None,298.1181149482727,None,2,1,1.2113430500030518,298.1181149482727,None,,,,,,,,,,,,,,,,,,,,,,,,,,,,1000,001,01,2021_Nov_02_1332,task-switching-replication,2021.2.3,59.869108266162705,
1,12,timed,01,standing,switch,incongruant,dashed,triangle,blue,stimuli/dashed-rectangle.png,stimuli/blue-triangle.png,1,,,,,,,,,,,,,0,11,11,11,,,,,,,,,,,,,,,,,,,,,,,,,,,,,,,,,,,,,,,,,,,,,,,,,,,,,,,,,,,,,,,,,,,,,,,,,,,,,,,,,,,,,,,,,,,,,,,,301.45187497138977,None,,,,,,,,,,,,,,,,,299.6489489078522,None,300.6218099594116,None,1,1,0.7227518558502197,300.6218099594116,None,,,,,,,,,,,,,,,,,,,,,,,,,,,,1000,001,01,2021_Nov_02_1332,task-switching-replication,2021.2.3,59.869108266162705,
1,13,timed,01,standing,noswitch,congruant,dashed,triangle,yellow,stimuli/dashed-rectangle.png,stimuli/yellow-triangle.png,1,,,,,,,,,,,,,0,12,12,12,,,,,0,0,0,0,,,,,,,,,,,,,,,,,,,,,,,,,,,,,,,,,,,,,,,,,,,,,,,,,,,,,,,,,,,,,,,,,,,,,,,,,,,,,,,,,,,,,,,,,,303.3962813615799,304.4338438510895,303.4190378189087,None,,,,,,,,,,,,,301.6637580394745,None,302.63671493530273,None,2,0,0.6632239818572998,302.63671493530273,None,,,,,,,,,,,,,,,,,,,,,,,,,,,,1000,001,01,2021_Nov_02_1332,task-switching-replication,2021.2.3,59.869108266162705,
1,13,timed,01,standing,noswitch,congruant,dashed,triangle,yellow,stimuli/dashed-rectangle.png,stimuli/yellow-triangle.png,1,,,,,,,,,,,,,0,12,12,12,,,,,,,,,,,,,,,,,,,,,,,,,,,,,,,,,,,,,,,,,,,,,,,,,,,,,,,,,,,,,,,,,,,,,,,,,,,,,,,,,,,,,,,,,,,,,,,,308.41860580444336,None,,,,,,,,,,,,,,,,,,,,,,,,,,,,,,,,,,,,,,,,,,,,,,,,,,,,,1000,001,01,2021_Nov_02_1332,task-switching-replication,2021.2.3,59.869108266162705,
1,14,timed,01,standing,switch,congruant,solid,square,blue,stimuli/solid-rectangle.png,stimuli/blue-square.png,1,,,,,,,,,,,,,0,13,13,13,,,,,,,,,,,,,,,,,,,,,,,,,,,,,,,,,,,,,,,,,,,,,,,,,,,,,,,,,,,,,,,,,,,,,,,,,,,,,,,,,,,,,,,,,,,,,,,,310.70649886131287,None,,,,,,,,,,,,,,,,,308.6301898956299,None,309.6027989387512,None,1,1,0.975182056427002,309.6027989387512,None,,,,,,,,,,,,,,,,,,,,,,,,,,,,1000,001,01,2021_Nov_02_1332,task-switching-replication,2021.2.3,59.869108266162705,
1,15,timed,01,standing,switch,incongruant,dashed,square,blue,stimuli/dashed-rectangle.png,stimuli/blue-square.png,2,,,,,,,,,,,,,0,14,14,14,,,,,,,,,,,,,,,,,,,,,,,,,,,,,,,,,,,,,,,,,,,,,,,,,,,,,,,,,,,,,,,,,,,,,,,,,,,,,,,,,,,,,,,,,,,,,,,,312.77363085746765,None,,,,,,,,,,,,,,,,,310.9181559085846,None,311.88964080810547,None,2,1,0.7769408226013184,311.88964080810547,None,,,,,,,,,,,,,,,,,,,,,,,,,,,,1000,001,01,2021_Nov_02_1332,task-switching-replication,2021.2.3,59.869108266162705,
1,16,timed,01,standing,noswitch,congruant,dashed,square,blue,stimuli/dashed-rectangle.png,stimuli/blue-square.png,2,,,,,,,,,,,,,0,15,15,15,,,,,,,,,,,,,,,,,,,,,,,,,,,,,,,,,,,,,,,,,,,,,,,,,,,,,,,,,,,,,,,,,,,,,,,,,,,,,,,,,,,,,,,,,,,,,,,,314.78791880607605,None,,,,,,,,,,,,,,,,,312.9855399131775,None,313.95813393592834,None,2,1,0.7448880672454834,313.95813393592834,None,,,,,,,,,,,,,,,,,,,,,,,,,,,,1000,001,01,2021_Nov_02_1332,task-switching-replication,2021.2.3,59.869108266162705,
1,17,timed,01,standing,switch,congruant,solid,square,yellow,stimuli/solid-rectangle.png,stimuli/yellow-square.png,2,,,,,,,,,,,,,0,16,16,16,,,,,,,,,,,,,,,,,,,,,,,,,,,,,,,,,,,,,,,,,,,,,,,,,,,,,,,,,,,,,,,,,,,,,,,,,,,,,,,,,,,,,,,,,,,,,,,,316.96396803855896,None,,,,,,,,,,,,,,,,,314.9995148181915,None,315.9705798625946,None,2,1,0.8858880996704102,315.9705798625946,None,,,,,,,,,,,,,,,,,,,,,,,,,,,,1000,001,01,2021_Nov_02_1332,task-switching-replication,2021.2.3,59.869108266162705,
1,18,timed,01,standing,switch,incongruant,dashed,triangle,yellow,stimuli/dashed-rectangle.png,stimuli/yellow-triangle.png,1,,,,,,,,,,,,,0,17,17,17,,,,,,,,,,,,,,,,,,,,,,,,,,,,,,,,,,,,,,,,,,,,,,,,,,,,,,,,,,,,,,,,,,,,,,,,,,,,,,,,,,,,,,,,,,,,,,,,319.36648893356323,None,,,,,,,,,,,,,,,,,317.1758179664612,None,318.16727781295776,None,1,1,1.0968949794769287,318.16727781295776,None,,,,,,,,,,,,,,,,,,,,,,,,,,,,1000,001,01,2021_Nov_02_1332,task-switching-replication,2021.2.3,59.869108266162705,
1,19,timed,01,standing,switch,congruant,solid,triangle,blue,stimuli/solid-rectangle.png,stimuli/blue-triangle.png,1,,,,,,,,,,,,,0,18,18,18,,,,,,,,,,,,,,,,,,,,,,,,,,,,,,,,,,,,,,,,,,,,,,,,,,,,,,,,,,,,,,,,,,,,,,,,,,,,,,,,,,,,,,,,,,,,,,,,321.9571509361267,None,,,,,,,,,,,,,,,,,319.5954828262329,None,320.5797920227051,None,1,1,1.2656269073486328,320.5797920227051,None,,,,,,,,,,,,,,,,,,,,,,,,,,,,1000,001,01,2021_Nov_02_1332,task-switching-replication,2021.2.3,59.869108266162705,
1,20,timed,01,standing,noswitch,incongruant,solid,triangle,yellow,stimuli/solid-rectangle.png,stimuli/yellow-triangle.png,2,,,,,,,,,,,,,0,19,19,19,,,,,,,,,,,,,,,,,,,,,,,,,,,,,,,,,,,,,,,,,,,,,,,,,,,,,,,,,,,,,,,,,,,,,,,,,,,,,,,,,,,,,,,,,,,,,,,,324.2532329559326,None,,,,,,,,,,,,,,,,,322.18568682670593,None,323.1700978279114,None,2,1,0.9501690864562988,323.1700978279114,None,,,,,,,,,,,,,,,,,,,,,,,,,,,,1000,001,01,2021_Nov_02_1332,task-switching-replication,2021.2.3,59.869108266162705,
1,21,timed,01,standing,noswitch,congruant,solid,square,yellow,stimuli/solid-rectangle.png,stimuli/yellow-square.png,2,,,,,,,,,,,,,0,20,20,20,,,,,,,,,,,,,,,,,,,,,,,,,,,,,,,,,,,,,,,,,,,,,,,,,,,,,,,,,,,,,,,,,,,,,,,,,,,,,,,,,,,,,,,,,,,,,,,,326.2543349266052,None,,,,,,,,,,,,,,,,,324.4827558994293,None,325.46748781204224,None,2,1,0.6454410552978516,325.46748781204224,None,,,,,,,,,,,,,,,,,,,,,,,,,,,,1000,001,01,2021_Nov_02_1332,task-switching-replication,2021.2.3,59.869108266162705,
1,22,timed,01,standing,switch,congruant,dashed,square,yellow,stimuli/dashed-rectangle.png,stimuli/yellow-square.png,2,,,,,,,,,,,,,0,21,21,21,,,,,0,0,0,0,,,,,,,,,,,,,,,,,,,,,,,,,,,,,,,,,,,,,,,,,,,,,,,,,,,,,,,,,,,,,,,,,,,,,,,,,,,,,,,,,,,,,,,,,,328.28423249721527,329.30210995674133,328.3190288543701,None,,,,,,,,,,,,,326.48302483558655,None,327.4669659137726,None,1,0,0.7464499473571777,327.4669659137726,None,,,,,,,,,,,,,,,,,,,,,,,,,,,,1000,001,01,2021_Nov_02_1332,task-switching-replication,2021.2.3,59.869108266162705,
1,22,timed,01,standing,switch,congruant,dashed,square,yellow,stimuli/dashed-rectangle.png,stimuli/yellow-square.png,2,,,,,,,,,,,,,0,21,21,21,,,,,,,,,,,,,,,,,,,,,,,,,,,,,,,,,,,,,,,,,,,,,,,,,,,,,,,,,,,,,,,,,,,,,,,,,,,,,,,,,,,,,,,,,,,,,,,,333.3439779281616,None,,,,,,,,,,,,,,,,,,,,,,,,,,,,,,,,,,,,,,,,,,,,,,,,,,,,,1000,001,01,2021_Nov_02_1332,task-switching-replication,2021.2.3,59.869108266162705,
1,23,timed,01,standing,noswitch,incongruant,dashed,triangle,blue,stimuli/dashed-rectangle.png,stimuli/blue-triangle.png,1,,,,,,,,,,,,,0,22,22,22,,,,,0,0,0,0,,,,,,,,,,,,,,,,,,,,,,,,,,,,,,,,,,,,,,,,,,,,,,,,,,,,,,,,,,,,,,,,,,,,,,,,,,,,,,,,,,,,,,,,,,335.3448535203934,336.3966588973999,335.37846994400024,None,,,,,,,,,,,,,333.54061484336853,None,334.5262858867645,None,2,0,0.7447359561920166,334.5262858867645,None,,,,,,,,,,,,,,,,,,,,,,,,,,,,1000,001,01,2021_Nov_02_1332,task-switching-replication,2021.2.3,59.869108266162705,
1,23,timed,01,standing,noswitch,incongruant,dashed,triangle,blue,stimuli/dashed-rectangle.png,stimuli/blue-triangle.png,1,,,,,,,,,,,,,0,22,22,22,,,,,,,,,,,,,,,,,,,,,,,,,,,,,,,,,,,,,,,,,,,,,,,,,,,,,,,,,,,,,,,,,,,,,,,,,,,,,,,,,,,,,,,,,,,,,,,,340.4028170108795,None,,,,,,,,,,,,,,,,,,,,,,,,,,,,,,,,,,,,,,,,,,,,,,,,,,,,,1000,001,01,2021_Nov_02_1332,task-switching-replication,2021.2.3,59.869108266162705,
1,24,timed,01,standing,noswitch,incongruant,dashed,square,blue,stimuli/dashed-rectangle.png,stimuli/blue-square.png,2,,,,,,,,,,,,,0,23,23,23,,,,,,,,,,,,,,,,,,,,,,,,,,,,,,,,,,,,,,,,,,,,,,,,,,,,,,,,,,,,,,,,,,,,,,,,,,,,,,,,,,,,,,,,,,,,,,,,342.31580781936646,None,,,,,,,,,,,,,,,,,340.5992658138275,None,341.5834469795227,None,2,1,0.5837430953979492,341.5834469795227,None,,,,,,,,,,,,,,,,,,,,,,,,,,,,1000,001,01,2021_Nov_02_1332,task-switching-replication,2021.2.3,59.869108266162705,
1,1,experiment,01,standing,buffer,buffer,dashed,triangle,blue,stimuli/dashed-rectangle.png,stimuli/blue-triangle.png,1,,,,,,,,,,,,,,,,,,,,,,,,,0,0,0,0,0,0,0,0,0,0,0,0,,,,,,,,,342.55980491638184,None,2,5.496010065078735,342.55980491638184,None,,,,,,,,,,,,,,,,,,,,,,,,,,,,,,,,,,,,,,,,,,,,,,,,,,,,,,,,,,,,,,358.8303940296173,None,,,,,,,,,,,,,,,,,,,,,,,,,,348.1483619213104,None,2,4.391597032546997,348.1483619213104,None,352.65027689933777,None,2,4.244530200958252,352.65027689933777,None,357.05901193618774,None,358.0428569316864,None,1,1,0.6487019062042236,358.0428569316864,None,,,,,,,1000,001,01,2021_Nov_02_1332,task-switching-replication,2021.2.3,59.869108266162705,
1,2,experiment,01,standing,switch,incongruant,solid,square,yellow,stimuli/solid-rectangle.png,stimuli/yellow-square.png,2,,,,,,,,,,,,,,,,,,,,,,,,,0,0,0,0,0,0,0,0,0,1,1,1,,,,,,,,,,,,,,,,,,,,,,,,,,,,,,,,,,,,,,,,,,,,,,,,,,,,,,,,,,,,,,,,,,,,,,,,,,,,360.5373649597168,None,,,,,,,,,,,,,,,,,,,,,,,,,,,,,,,,,,,,,,359.06042098999023,None,360.0442898273468,None,2,1,0.3546609878540039,360.0442898273468,None,,,,,,,1000,001,01,2021_Nov_02_1332,task-switching-replication,2021.2.3,59.869108266162705,
1,3,experiment,01,standing,switch,congruant,dashed,square,blue,stimuli/dashed-rectangle.png,stimuli/blue-square.png,2,,,,,,,,,,,,,,,,,,,,,,,,,0,0,0,0,0,0,0,0,0,2,2,2,,,,,,,,,,,,,,,,,,,,,,,,,,,,,,,,,,,,,,,,,,,,,,,,,,,,,,,,,,,,,,,,,,,,,,,,,,,,362.24289894104004,None,,,,,,,,,,,,,,,,,,,,,,,,,,,,,,,,,,,,,,360.76699590682983,None,361.75112891197205,None,2,1,0.3566000461578369,361.75112891197205,None,,,,,,,1000,001,01,2021_Nov_02_1332,task-switching-replication,2021.2.3,59.869108266162705,
1,4,experiment,01,standing,noswitch,congruant,dashed,square,yellow,stimuli/dashed-rectangle.png,stimuli/yellow-square.png,2,,,,,,,,,,,,,,,,,,,,,,,,,0,0,0,0,0,0,0,0,0,3,3,3,,,,,0,0,0,0,,,,,,,,,,,,,,,,,,,,,,,,,,,,,,,,,,,,,,,,,,,,,,,,,,,,,,,,,,,,,,,,,,,,,,364.57379758358,365.62534189224243,364.6062128543854,None,,,,,,,,,,,,,,,,,,,,,,,,,,,,,,,,,,362.4718849658966,None,363.45631098747253,None,1,0,0.9866018295288086,363.45631098747253,None,,,,,,,1000,001,01,2021_Nov_02_1332,task-switching-replication,2021.2.3,59.869108266162705,
1,4,experiment,01,standing,noswitch,congruant,dashed,square,yellow,stimuli/dashed-rectangle.png,stimuli/yellow-square.png,2,,,,,,,,,,,,,,,,,,,,,,,,,0,0,0,0,0,0,0,0,0,3,3,3,,,,,,,,,,,,,,,,,,,,,,,,,,,,,,,,,,,,,,,,,,,,,,,,,,,,,,,,,,,,,,,,,,,,,,,,,,,,369.62986993789673,None,,,,,,,,,,,,,,,,,,,,,,,,,,,,,,,,,,,,,,,,,,,,,,,,,,,,,1000,001,01,2021_Nov_02_1332,task-switching-replication,2021.2.3,59.869108266162705,
1,5,experiment,01,standing,noswitch,incongruant,dashed,triangle,yellow,stimuli/dashed-rectangle.png,stimuli/yellow-triangle.png,1,,,,,,,,,,,,,,,,,,,,,,,,,0,0,0,0,0,0,0,0,0,4,4,4,,,,,0,0,0,0,,,,,,,,,,,,,,,,,,,,,,,,,,,,,,,,,,,,,,,,,,,,,,,,,,,,,,,,,,,,,,,,,,,,,,372.0415655374527,373.06003499031067,372.07515501976013,None,,,,,,,,,,,,,,,,,,,,,,,,,,,,,,,,,,369.8263728618622,None,370.8109109401703,None,2,0,1.1437828540802002,370.8109109401703,None,,,,,,,1000,001,01,2021_Nov_02_1332,task-switching-replication,2021.2.3,59.869108266162705,
1,5,experiment,01,standing,noswitch,incongruant,dashed,triangle,yellow,stimuli/dashed-rectangle.png,stimuli/yellow-triangle.png,1,,,,,,,,,,,,,,,,,,,,,,,,,0,0,0,0,0,0,0,0,0,4,4,4,,,,,,,,,,,,,,,,,,,,,,,,,,,,,,,,,,,,,,,,,,,,,,,,,,,,,,,,,,,,,,,,,,,,,,,,,,,,377.10289096832275,None,,,,,,,,,,,,,,,,,,,,,,,,,,,,,,,,,,,,,,,,,,,,,,,,,,,,,1000,001,01,2021_Nov_02_1332,task-switching-replication,2021.2.3,59.869108266162705,
1,6,experiment,01,standing,switch,incongruant,solid,triangle,yellow,stimuli/solid-rectangle.png,stimuli/yellow-triangle.png,2,,,,,,,,,,,,,,,,,,,,,,,,,0,0,0,0,0,0,0,0,0,5,5,5,,,,,,,,,,,,,,,,,,,,,,,,,,,,,,,,,,,,,,,,,,,,,,,,,,,,,,,,,,,,,,,,,,,,,,,,,,,,379.13043785095215,None,,,,,,,,,,,,,,,,,,,,,,,,,,,,,,,,,,,,,,377.2997558116913,None,378.2842209339142,None,2,1,0.7185759544372559,378.2842209339142,None,,,,,,,1000,001,01,2021_Nov_02_1332,task-switching-replication,2021.2.3,59.869108266162705,
1,7,experiment,01,standing,noswitch,congruant,solid,square,yellow,stimuli/solid-rectangle.png,stimuli/yellow-square.png,2,,,,,,,,,,,,,,,,,,,,,,,,,0,0,0,0,0,0,0,0,0,6,6,6,,,,,,,,,,,,,,,,,,,,,,,,,,,,,,,,,,,,,,,,,,,,,,,,,,,,,,,,,,,,,,,,,,,,,,,,,,,,381.18972301483154,None,,,,,,,,,,,,,,,,,,,,,,,,,,,,,,,,,,,,,,379.35926699638367,None,380.3436360359192,None,2,1,0.7336490154266357,380.3436360359192,None,,,,,,,1000,001,01,2021_Nov_02_1332,task-switching-replication,2021.2.3,59.869108266162705,
1,8,experiment,01,standing,noswitch,incongruant,solid,square,blue,stimuli/solid-rectangle.png,stimuli/blue-square.png,1,,,,,,,,,,,,,,,,,,,,,,,,,0,0,0,0,0,0,0,0,0,7,7,7,,,,,,,,,,,,,,,,,,,,,,,,,,,,,,,,,,,,,,,,,,,,,,,,,,,,,,,,,,,,,,,,,,,,,,,,,,,,382.9562909603119,None,,,,,,,,,,,,,,,,,,,,,,,,,,,,,,,,,,,,,,381.4185688495636,None,382.4029438495636,None,1,1,0.4199361801147461,382.4029438495636,None,,,,,,,1000,001,01,2021_Nov_02_1332,task-switching-replication,2021.2.3,59.869108266162705,
1,9,experiment,01,standing,noswitch,congruant,solid,triangle,blue,stimuli/solid-rectangle.png,stimuli/blue-triangle.png,1,,,,,,,,,,,,,,,,,,,,,,,,,0,0,0,0,0,0,0,0,0,8,8,8,,,,,,,,,,,,,,,,,,,,,,,,,,,,,,,,,,,,,,,,,,,,,,,,,,,,,,,,,,,,,,,,,,,,,,,,,,,,384.72020196914673,None,,,,,,,,,,,,,,,,,,,,,,,,,,,,,,,,,,,,,,383.18505597114563,None,384.16892099380493,None,1,1,0.4035680294036865,384.16892099380493,None,,,,,,,1000,001,01,2021_Nov_02_1332,task-switching-replication,2021.2.3,59.869108266162705,
1,10,experiment,01,standing,switch,incongruant,dashed,square,yellow,stimuli/dashed-rectangle.png,stimuli/yellow-square.png,2,,,,,,,,,,,,,,,,,,,,,,,,,0,0,0,0,0,0,0,0,0,9,9,9,,,,,,,,,,,,,,,,,,,,,,,,,,,,,,,,,,,,,,,,,,,,,,,,,,,,,,,,,,,,,,,,,,,,,,,,,,,,386.66045093536377,None,,,,,,,,,,,,,,,,,,,,,,,,,,,,,,,,,,,,,,384.94908595085144,None,385.93315982818604,None,2,1,0.6166720390319824,385.93315982818604,None,,,,,,,1000,001,01,2021_Nov_02_1332,task-switching-replication,2021.2.3,59.869108266162705,
1,11,experiment,01,standing,switch,congruant,solid,triangle,yellow,stimuli/solid-rectangle.png,stimuli/yellow-triangle.png,2,,,,,,,,,,,,,,,,,,,,,,,,,0,0,0,0,0,0,0,0,0,10,10,10,0,0,0,0,,,,,,,,,,,,,,,,,,,,,,,,,,,,,,,,,,,,,,,,,,,,,,,,,,,,,,,,,,,,,,,,,,,,389.10619246959686,390.1583938598633,389.13908290863037,None,,,,,,,,,,,,,,,,,,,,,,,,,,,,,,,,,,,,,,,,386.88917088508606,None,387.8735918998718,None,1,0,1.1119279861450195,387.8735918998718,None,,,,,,,1000,001,01,2021_Nov_02_1332,task-switching-replication,2021.2.3,59.869108266162705,
1,11,experiment,01,standing,switch,congruant,solid,triangle,yellow,stimuli/solid-rectangle.png,stimuli/yellow-triangle.png,2,,,,,,,,,,,,,,,,,,,,,,,,,0,0,0,0,0,0,0,0,0,10,10,10,,,,,,,,,,,,,,,,,,,,,,,,,,,,,,,,,,,,,,,,,,,,,,,,,,,,,,,,,,,,,,,,,,,,,,,,,,,,394.16283988952637,None,,,,,,,,,,,,,,,,,,,,,,,,,,,,,,,,,,,,,,,,,,,,,,,,,,,,,1000,001,01,2021_Nov_02_1332,task-switching-replication,2021.2.3,59.869108266162705,
1,12,experiment,01,standing,noswitch,congruant,solid,square,yellow,stimuli/solid-rectangle.png,stimuli/yellow-square.png,2,,,,,,,,,,,,,,,,,,,,,,,,,0,0,0,0,0,0,0,0,0,11,11,11,0,0,0,0,,,,,,,,,,,,,,,,,,,,,,,,,,,,,,,,,,,,,,,,,,,,,,,,,,,,,,,,,,,,,,,,,,,,396.8781618595124,397.92877984046936,396.90934586524963,None,,,,,,,,,,,,,,,,,,,,,,,,,,,,,,,,,,,,,,,,394.35905385017395,None,395.3432478904724,None,None,0,,395.3432478904724,None,,,,,,,1000,001,01,2021_Nov_02_1332,task-switching-replication,2021.2.3,59.869108266162705,
1,12,experiment,01,standing,noswitch,congruant,solid,square,yellow,stimuli/solid-rectangle.png,stimuli/yellow-square.png,2,,,,,,,,,,,,,,,,,,,,,,,,,0,0,0,0,0,0,0,0,0,11,11,11,,,,,,,,,,,,,,,,,,,,,,,,,,,,,,,,,,,,,,,,,,,,,,,,,,,,,,,,,,,,,,,,,,,,,,,,,,,,401.93241000175476,None,,,,,,,,,,,,,,,,,,,,,,,,,,,,,,,,,,,,,,,,,,,,,,,,,,,,,1000,001,01,2021_Nov_02_1332,task-switching-replication,2021.2.3,59.869108266162705,
1,13,experiment,01,standing,switch,congruant,dashed,square,yellow,stimuli/dashed-rectangle.png,stimuli/yellow-square.png,2,,,,,,,,,,,,,,,,,,,,,,,,,0,0,0,0,0,0,0,0,0,12,12,12,,,,,0,0,0,0,,,,,,,,,,,,,,,,,,,,,,,,,,,,,,,,,,,,,,,,,,,,,,,,,,,,,,,,,,,,,,,,,,,,,,404.6471626281739,405.6965730190277,404.6788818836212,None,,,,,,,,,,,,,,,,,,,,,,,,,,,,,,,,,,402.12901186943054,None,403.11265301704407,None,None,0,,403.11265301704407,None,,,,,,,1000,001,01,2021_Nov_02_1332,task-switching-replication,2021.2.3,59.869108266162705,
1,13,experiment,01,standing,switch,congruant,dashed,square,yellow,stimuli/dashed-rectangle.png,stimuli/yellow-square.png,2,,,,,,,,,,,,,,,,,,,,,,,,,0,0,0,0,0,0,0,0,0,12,12,12,,,,,,,,,,,,,,,,,,,,,,,,,,,,,,,,,,,,,,,,,,,,,,,,,,,,,,,,,,,,,,,,,,,,,,,,,,,,409.6980810165405,None,,,,,,,,,,,,,,,,,,,,,,,,,,,,,,,,,,,,,,,,,,,,,,,,,,,,,1000,001,01,2021_Nov_02_1332,task-switching-replication,2021.2.3,59.869108266162705,
1,14,experiment,01,standing,noswitch,incongruant,dashed,triangle,yellow,stimuli/dashed-rectangle.png,stimuli/yellow-triangle.png,1,,,,,,,,,,,,,,,,,,,,,,,,,0,0,0,0,0,0,0,0,0,13,13,13,,,,,,,,,,,,,,,,,,,,,,,,,,,,,,,,,,,,,,,,,,,,,,,,,,,,,,,,,,,,,,,,,,,,,,,,,,,,412.31239795684814,None,,,,,,,,,,,,,,,,,,,,,,,,,,,,,,,,,,,,,,409.89441084861755,None,410.8778350353241,None,1,1,1.3007481098175049,410.8778350353241,None,,,,,,,1000,001,01,2021_Nov_02_1332,task-switching-replication,2021.2.3,59.869108266162705,
1,15,experiment,01,standing,noswitch,incongruant,dashed,square,blue,stimuli/dashed-rectangle.png,stimuli/blue-square.png,2,,,,,,,,,,,,,,,,,,,,,,,,,0,0,0,0,0,0,0,0,0,14,14,14,,,,,,,,,,,,,,,,,,,,,,,,,,,,,,,,,,,,,,,,,,,,,,,,,,,,,,,,,,,,,,,,,,,,,,,,,,,,414.19204783439636,None,,,,,,,,,,,,,,,,,,,,,,,,,,,,,,,,,,,,,,412.54086995124817,None,413.523934841156,None,2,1,0.539618968963623,413.523934841156,None,,,,,,,1000,001,01,2021_Nov_02_1332,task-switching-replication,2021.2.3,59.869108266162705,
1,16,experiment,01,standing,noswitch,congruant,dashed,square,blue,stimuli/dashed-rectangle.png,stimuli/blue-square.png,2,,,,,,,,,,,,,,,,,,,,,,,,,0,0,0,0,0,0,0,0,0,15,15,15,,,,,,,,,,,,,,,,,,,,,,,,,,,,,,,,,,,,,,,,,,,,,,,,,,,,,,,,,,,,,,,,,,,,,,,,,,,,415.89710998535156,None,,,,,,,,,,,,,,,,,,,,,,,,,,,,,,,,,,,,,,414.4214379787445,None,415.40557980537415,None,2,1,0.37691807746887207,415.40557980537415,None,,,,,,,1000,001,01,2021_Nov_02_1332,task-switching-replication,2021.2.3,59.869108266162705,
1,17,experiment,01,standing,noswitch,incongruant,dashed,triangle,yellow,stimuli/dashed-rectangle.png,stimuli/yellow-triangle.png,1,,,,,,,,,,,,,,,,,,,,,,,,,0,0,0,0,0,0,0,0,0,16,16,16,,,,,,,,,,,,,,,,,,,,,,,,,,,,,,,,,,,,,,,,,,,,,,,,,,,,,,,,,,,,,,,,,,,,,,,,,,,,417.5418689250946,None,,,,,,,,,,,,,,,,,,,,,,,,,,,,,,,,,,,,,,416.12574791908264,None,417.109503030777,None,1,1,0.3150961399078369,417.109503030777,None,,,,,,,1000,001,01,2021_Nov_02_1332,task-switching-replication,2021.2.3,59.869108266162705,
1,18,experiment,01,standing,switch,congruant,solid,square,blue,stimuli/solid-rectangle.png,stimuli/blue-square.png,1,,,,,,,,,,,,,,,,,,,,,,,,,0,0,0,0,0,0,0,0,0,17,17,17,,,,,,,,,,,,,,,,,,,,,,,,,,,,,,,,,,,,,,,,,,,,,,,,,,,,,,,,,,,,,,,,,,,,,,,,,,,,419.4823338985443,None,,,,,,,,,,,,,,,,,,,,,,,,,,,,,,,,,,,,,,417.77081203460693,None,418.75493001937866,None,1,1,0.6134171485900879,418.75493001937866,None,,,,,,,1000,001,01,2021_Nov_02_1332,task-switching-replication,2021.2.3,59.869108266162705,
1,19,experiment,01,standing,switch,congruant,dashed,triangle,blue,stimuli/dashed-rectangle.png,stimuli/blue-triangle.png,1,,,,,,,,,,,,,,,,,,,,,,,,,0,0,0,0,0,0,0,0,0,18,18,18,,,,,0,0,0,0,,,,,,,,,,,,,,,,,,,,,,,,,,,,,,,,,,,,,,,,,,,,,,,,,,,,,,,,,,,,,,,,,,,,,,421.3939825296402,422.4465148448944,421.4268138408661,None,,,,,,,,,,,,,,,,,,,,,,,,,,,,,,,,,,419.7110798358917,None,420.6948208808899,None,2,0,0.6236538887023926,420.6948208808899,None,,,,,,,1000,001,01,2021_Nov_02_1332,task-switching-replication,2021.2.3,59.869108266162705,
1,19,experiment,01,standing,switch,congruant,dashed,triangle,blue,stimuli/dashed-rectangle.png,stimuli/blue-triangle.png,1,,,,,,,,,,,,,,,,,,,,,,,,,0,0,0,0,0,0,0,0,0,18,18,18,,,,,,,,,,,,,,,,,,,,,,,,,,,,,,,,,,,,,,,,,,,,,,,,,,,,,,,,,,,,,,,,,,,,,,,,,,,,426.44949197769165,None,,,,,,,,,,,,,,,,,,,,,,,,,,,,,,,,,,,,,,,,,,,,,,,,,,,,,1000,001,01,2021_Nov_02_1332,task-switching-replication,2021.2.3,59.869108266162705,
1,20,experiment,01,standing,noswitch,congruant,dashed,triangle,blue,stimuli/dashed-rectangle.png,stimuli/blue-triangle.png,1,,,,,,,,,,,,,,,,,,,,,,,,,0,0,0,0,0,0,0,0,0,19,19,19,,,,,,,,,,,,,,,,,,,,,,,,,,,,,,,,,,,,,,,,,,,,,,,,,,,,,,,,,,,,,,,,,,,,,,,,,,,,429.1847870349884,None,,,,,,,,,,,,,,,,,,,,,,,,,,,,,,,,,,,,,,426.6458818912506,None,427.6298899650574,None,1,1,1.4114868640899658,427.6298899650574,None,,,,,,,1000,001,01,2021_Nov_02_1332,task-switching-replication,2021.2.3,59.869108266162705,
1,21,experiment,01,standing,switch,incongruant,solid,square,yellow,stimuli/solid-rectangle.png,stimuli/yellow-square.png,2,,,,,,,,,,,,,,,,,,,,,,,,,0,0,0,0,0,0,0,0,0,20,20,20,,,,,,,,,,,,,,,,,,,,,,,,,,,,,,,,,,,,,,,,,,,,,,,,,,,,,,,,,,,,,,,,,,,,,,,,,,,,431.83802795410156,None,,,,,,,,,,,,,,,,,,,,,,,,,,,,,,,,,,,,,,429.41377902030945,None,430.39786291122437,None,2,1,1.2918369770050049,430.39786291122437,None,,,,,,,1000,001,01,2021_Nov_02_1332,task-switching-replication,2021.2.3,59.869108266162705,
1,22,experiment,01,standing,noswitch,incongruant,solid,triangle,blue,stimuli/solid-rectangle.png,stimuli/blue-triangle.png,1,,,,,,,,,,,,,,,,,,,,,,,,,0,0,0,0,0,0,0,0,0,21,21,21,,,,,,,,,,,,,,,,,,,,,,,,,,,,,,,,,,,,,,,,,,,,,,,,,,,,,,,,,,,,,,,,,,,,,,,,,,,,433.7214639186859,None,,,,,,,,,,,,,,,,,,,,,,,,,,,,,,,,,,,,,,432.06661891937256,None,433.04938197135925,None,1,1,0.5290069580078125,433.04938197135925,None,,,,,,,1000,001,01,2021_Nov_02_1332,task-switching-replication,2021.2.3,59.869108266162705,
1,23,experiment,01,standing,switch,congruant,dashed,triangle,blue,stimuli/dashed-rectangle.png,stimuli/blue-triangle.png,1,,,,,,,,,,,,,,,,,,,,,,,,,0,0,0,0,0,0,0,0,0,22,22,22,,,,,,,,,,,,,,,,,,,,,,,,,,,,,,,,,,,,,,,,,,,,,,,,,,,,,,,,,,,,,,,,,,,,,,,,,,,,435.60293102264404,None,,,,,,,,,,,,,,,,,,,,,,,,,,,,,,,,,,,,,,433.95039081573486,None,434.93408489227295,None,1,1,0.5401310920715332,434.93408489227295,None,,,,,,,1000,001,01,2021_Nov_02_1332,task-switching-replication,2021.2.3,59.869108266162705,
1,24,experiment,01,standing,noswitch,congruant,dashed,triangle,yellow,stimuli/dashed-rectangle.png,stimuli/yellow-triangle.png,1,,,,,,,,,,,,,,,,,,,,,,,,,0,0,0,0,0,0,0,0,0,23,23,23,,,,,0,0,0,0,,,,,,,,,,,,,,,,,,,,,,,,,,,,,,,,,,,,,,,,,,,,,,,,,,,,,,,,,,,,,,,,,,,,,,438.16424548625946,439.21469593048096,438.19681787490845,None,,,,,,,,,,,,,,,,,,,,,,,,,,,,,,,,,,435.8317668437958,None,436.815780878067,None,2,0,1.2736799716949463,436.815780878067,None,,,,,,,1000,001,01,2021_Nov_02_1332,task-switching-replication,2021.2.3,59.869108266162705,
1,24,experiment,01,standing,noswitch,congruant,dashed,triangle,yellow,stimuli/dashed-rectangle.png,stimuli/yellow-triangle.png,1,,,,,,,,,,,,,,,,,,,,,,,,,0,0,0,0,0,0,0,0,0,23,23,23,,,,,,,,,,,,,,,,,,,,,,,,,,,,,,,,,,,,,,,,,,,,,,,,,,,,,,,,,,,,,,,,,,,,,,,,,,,,443.2182548046112,None,,,,,,,,,,,,,,,,,,,,,,,,,,,,,,,,,,,,,,,,,,,,,,,,,,,,,1000,001,01,2021_Nov_02_1332,task-switching-replication,2021.2.3,59.869108266162705,
1,25,experiment,01,standing,switch,incongruant,solid,triangle,yellow,stimuli/solid-rectangle.png,stimuli/yellow-triangle.png,2,,,,,,,,,,,,,,,,,,,,,,,,,0,0,0,0,0,0,0,0,0,24,24,24,,,,,,,,,,,,,,,,,,,,,,,,,,,,,,,,,,,,,,,,,,,,,,,,,,,,,,,,,,,,,,,,,,,,,,,,,,,,445.7765748500824,None,,,,,,,,,,,,,,,,,,,,,,,,,,,,,,,,,,,,,,443.4145669937134,None,444.39960193634033,None,2,1,1.2567849159240723,444.39960193634033,None,,,,,,,1000,001,01,2021_Nov_02_1332,task-switching-replication,2021.2.3,59.869108266162705,
1,26,experiment,01,standing,noswitch,incongruant,solid,triangle,blue,stimuli/solid-rectangle.png,stimuli/blue-triangle.png,1,,,,,,,,,,,,,,,,,,,,,,,,,0,0,0,0,0,0,0,0,0,25,25,25,,,,,,,,,,,,,,,,,,,,,,,,,,,,,,,,,,,,,,,,,,,,,,,,,,,,,,,,,,,,,,,,,,,,,,,,,,,,447.4787518978119,None,,,,,,,,,,,,,,,,,,,,,,,,,,,,,,,,,,,,,,446.0050849914551,None,446.9879539012909,None,1,1,0.3860969543457031,446.9879539012909,None,,,,,,,1000,001,01,2021_Nov_02_1332,task-switching-replication,2021.2.3,59.869108266162705,
1,27,experiment,01,standing,noswitch,incongruant,solid,triangle,yellow,stimuli/solid-rectangle.png,stimuli/yellow-triangle.png,2,,,,,,,,,,,,,,,,,,,,,,,,,0,0,0,0,0,0,0,0,0,26,26,26,,,,,,,,,,,,,,,,,,,,,,,,,,,,,,,,,,,,,,,,,,,,,,,,,,,,,,,,,,,,,,,,,,,,,,,,,,,,449.18294286727905,None,,,,,,,,,,,,,,,,,,,,,,,,,,,,,,,,,,,,,,447.70672392845154,None,448.6904819011688,None,2,1,0.33887290954589844,448.6904819011688,None,,,,,,,1000,001,01,2021_Nov_02_1332,task-switching-replication,2021.2.3,59.869108266162705,
1,28,experiment,01,standing,noswitch,congruant,solid,square,yellow,stimuli/solid-rectangle.png,stimuli/yellow-square.png,2,,,,,,,,,,,,,,,,,,,,,,,,,0,0,0,0,0,0,0,0,0,27,27,27,0,0,0,0,,,,,,,,,,,,,,,,,,,,,,,,,,,,,,,,,,,,,,,,,,,,,,,,,,,,,,,,,,,,,,,,,,,,451.38776648044586,452.43984603881836,451.42078590393066,None,,,,,,,,,,,,,,,,,,,,,,,,,,,,,,,,,,,,,,,,449.4117739200592,None,450.3941469192505,None,1,0,0.9148440361022949,450.3941469192505,None,,,,,,,1000,001,01,2021_Nov_02_1332,task-switching-replication,2021.2.3,59.869108266162705,
1,28,experiment,01,standing,noswitch,congruant,solid,square,yellow,stimuli/solid-rectangle.png,stimuli/yellow-square.png,2,,,,,,,,,,,,,,,,,,,,,,,,,0,0,0,0,0,0,0,0,0,27,27,27,,,,,,,,,,,,,,,,,,,,,,,,,,,,,,,,,,,,,,,,,,,,,,,,,,,,,,,,,,,,,,,,,,,,,,,,,,,,456.44281697273254,None,,,,,,,,,,,,,,,,,,,,,,,,,,,,,,,,,,,,,,,,,,,,,,,,,,,,,1000,001,01,2021_Nov_02_1332,task-switching-replication,2021.2.3,59.869108266162705,
1,29,experiment,01,standing,noswitch,congruant,solid,square,yellow,stimuli/solid-rectangle.png,stimuli/yellow-square.png,2,,,,,,,,,,,,,,,,,,,,,,,,,0,0,0,0,0,0,0,0,0,28,28,28,,,,,,,,,,,,,,,,,,,,,,,,,,,,,,,,,,,,,,,,,,,,,,,,,,,,,,,,,,,,,,,,,,,,,,,,,,,,458.8821189403534,None,,,,,,,,,,,,,,,,,,,,,,,,,,,,,,,,,,,,,,456.63946986198425,None,457.62387681007385,None,2,1,1.1446800231933594,457.62387681007385,None,,,,,,,1000,001,01,2021_Nov_02_1332,task-switching-replication,2021.2.3,59.869108266162705,
1,30,experiment,01,standing,noswitch,incongruant,solid,square,blue,stimuli/solid-rectangle.png,stimuli/blue-square.png,1,,,,,,,,,,,,,,,,,,,,,,,,,0,0,0,0,0,0,0,0,0,29,29,29,0,0,0,0,,,,,,,,,,,,,,,,,,,,,,,,,,,,,,,,,,,,,,,,,,,,,,,,,,,,,,,,,,,,,,,,,,,,461.03095638751984,462.0829918384552,461.0638499259949,None,,,,,,,,,,,,,,,,,,,,,,,,,,,,,,,,,,,,,,,,459.11111402511597,None,460.0953588485718,None,2,0,0.8299741744995117,460.0953588485718,None,,,,,,,1000,001,01,2021_Nov_02_1332,task-switching-replication,2021.2.3,59.869108266162705,
1,30,experiment,01,standing,noswitch,incongruant,solid,square,blue,stimuli/solid-rectangle.png,stimuli/blue-square.png,1,,,,,,,,,,,,,,,,,,,,,,,,,0,0,0,0,0,0,0,0,0,29,29,29,,,,,,,,,,,,,,,,,,,,,,,,,,,,,,,,,,,,,,,,,,,,,,,,,,,,,,,,,,,,,,,,,,,,,,,,,,,,466.08576703071594,None,,,,,,,,,,,,,,,,,,,,,,,,,,,,,,,,,,,,,,,,,,,,,,,,,,,,,1000,001,01,2021_Nov_02_1332,task-switching-replication,2021.2.3,59.869108266162705,
1,31,experiment,01,standing,noswitch,congruant,solid,square,blue,stimuli/solid-rectangle.png,stimuli/blue-square.png,1,,,,,,,,,,,,,,,,,,,,,,,,,0,0,0,0,0,0,0,0,0,30,30,30,,,,,,,,,,,,,,,,,,,,,,,,,,,,,,,,,,,,,,,,,,,,,,,,,,,,,,,,,,,,,,,,,,,,,,,,,,,,468.4061670303345,None,,,,,,,,,,,,,,,,,,,,,,,,,,,,,,,,,,,,,,466.2823529243469,None,467.26610684394836,None,1,1,1.0311059951782227,467.26610684394836,None,,,,,,,1000,001,01,2021_Nov_02_1332,task-switching-replication,2021.2.3,59.869108266162705,
1,32,experiment,01,standing,switch,incongruant,dashed,square,yellow,stimuli/dashed-rectangle.png,stimuli/yellow-square.png,2,,,,,,,,,,,,,,,,,,,,,,,,,0,0,0,0,0,0,0,0,0,31,31,31,,,,,,,,,,,,,,,,,,,,,,,,,,,,,,,,,,,,,,,,,,,,,,,,,,,,,,,,,,,,,,,,,,,,,,,,,,,,470.4640610218048,None,,,,,,,,,,,,,,,,,,,,,,,,,,,,,,,,,,,,,,468.6346390247345,None,469.61758303642273,None,2,1,0.7026350498199463,469.61758303642273,None,,,,,,,1000,001,01,2021_Nov_02_1332,task-switching-replication,2021.2.3,59.869108266162705,
1,33,experiment,01,standing,switch,congruant,solid,triangle,yellow,stimuli/solid-rectangle.png,stimuli/yellow-triangle.png,2,,,,,,,,,,,,,,,,,,,,,,,,,0,0,0,0,0,0,0,0,0,32,32,32,,,,,,,,,,,,,,,,,,,,,,,,,,,,,,,,,,,,,,,,,,,,,,,,,,,,,,,,,,,,,,,,,,,,,,,,,,,,472.9963059425354,None,,,,,,,,,,,,,,,,,,,,,,,,,,,,,,,,,,,,,,470.69338393211365,None,471.67776894569397,None,2,1,1.197495937347412,471.67776894569397,None,,,,,,,1000,001,01,2021_Nov_02_1332,task-switching-replication,2021.2.3,59.869108266162705,
1,34,experiment,01,standing,noswitch,congruant,solid,triangle,yellow,stimuli/solid-rectangle.png,stimuli/yellow-triangle.png,2,,,,,,,,,,,,,,,,,,,,,,,,,0,0,0,0,0,0,0,0,0,33,33,33,,,,,,,,,,,,,,,,,,,,,,,,,,,,,,,,,,,,,,,,,,,,,,,,,,,,,,,,,,,,,,,,,,,,,,,,,,,,474.9976809024811,None,,,,,,,,,,,,,,,,,,,,,,,,,,,,,,,,,,,,,,473.2252469062805,None,474.2107079029083,None,2,1,0.663503885269165,474.2107079029083,None,,,,,,,1000,001,01,2021_Nov_02_1332,task-switching-replication,2021.2.3,59.869108266162705,
1,35,experiment,01,standing,switch,incongruant,dashed,triangle,yellow,stimuli/dashed-rectangle.png,stimuli/yellow-triangle.png,1,,,,,,,,,,,,,,,,,,,,,,,,,0,0,0,0,0,0,0,0,0,34,34,34,,,,,,,,,,,,,,,,,,,,,,,,,,,,,,,,,,,,,,,,,,,,,,,,,,,,,,,,,,,,,,,,,,,,,,,,,,,,477.29015588760376,None,,,,,,,,,,,,,,,,,,,,,,,,,,,,,,,,,,,,,,475.2259268760681,None,476.2085518836975,None,1,1,0.9435150623321533,476.2085518836975,None,,,,,,,1000,001,01,2021_Nov_02_1332,task-switching-replication,2021.2.3,59.869108266162705,
1,36,experiment,01,standing,noswitch,incongruant,dashed,square,yellow,stimuli/dashed-rectangle.png,stimuli/yellow-square.png,2,,,,,,,,,,,,,,,,,,,,,,,,,0,0,0,0,0,0,0,0,0,35,35,35,,,,,,,,,,,,,,,,,,,,,,,,,,,,,,,,,,,,,,,,,,,,,,,,,,,,,,,,,,,,,,,,,,,,,,,,,,,,479.2328689098358,None,,,,,,,,,,,,,,,,,,,,,,,,,,,,,,,,,,,,,,477.5190110206604,None,478.5038390159607,None,2,1,0.6002521514892578,478.5038390159607,None,,,,,,,1000,001,01,2021_Nov_02_1332,task-switching-replication,2021.2.3,59.869108266162705,
1,37,experiment,01,standing,switch,incongruant,solid,square,blue,stimuli/solid-rectangle.png,stimuli/blue-square.png,1,,,,,,,,,,,,,,,,,,,,,,,,,0,0,0,0,0,0,0,0,0,36,36,36,,,,,,,,,,,,,,,,,,,,,,,,,,,,,,,,,,,,,,,,,,,,,,,,,,,,,,,,,,,,,,,,,,,,,,,,,,,,481.05621099472046,None,,,,,,,,,,,,,,,,,,,,,,,,,,,,,,,,,,,,,,479.46145701408386,None,480.4466109275818,None,1,1,0.4713249206542969,480.4466109275818,None,,,,,,,1000,001,01,2021_Nov_02_1332,task-switching-replication,2021.2.3,59.869108266162705,
1,38,experiment,01,standing,switch,congruant,dashed,triangle,yellow,stimuli/dashed-rectangle.png,stimuli/yellow-triangle.png,1,,,,,,,,,,,,,,,,,,,,,,,,,0,0,0,0,0,0,0,0,0,37,37,37,,,,,0,0,0,0,,,,,,,,,,,,,,,,,,,,,,,,,,,,,,,,,,,,,,,,,,,,,,,,,,,,,,,,,,,,,,,,,,,,,,483.80437679290776,484.85431480407715,483.83598494529724,None,,,,,,,,,,,,,,,,,,,,,,,,,,,,,,,,,,481.2851688861847,None,482.27019596099854,None,None,0,,482.27019596099854,None,,,,,,,1000,001,01,2021_Nov_02_1332,task-switching-replication,2021.2.3,59.869108266162705,
1,38,experiment,01,standing,switch,congruant,dashed,triangle,yellow,stimuli/dashed-rectangle.png,stimuli/yellow-triangle.png,1,,,,,,,,,,,,,,,,,,,,,,,,,0,0,0,0,0,0,0,0,0,37,37,37,,,,,,,,,,,,,,,,,,,,,,,,,,,,,,,,,,,,,,,,,,,,,,,,,,,,,,,,,,,,,,,,,,,,,,,,,,,,488.8583559989929,None,,,,,,,,,,,,,,,,,,,,,,,,,,,,,,,,,,,,,,,,,,,,,,,,,,,,,1000,001,01,2021_Nov_02_1332,task-switching-replication,2021.2.3,59.869108266162705,
1,39,experiment,01,standing,noswitch,incongruant,dashed,square,blue,stimuli/dashed-rectangle.png,stimuli/blue-square.png,2,,,,,,,,,,,,,,,,,,,,,,,,,0,0,0,0,0,0,0,0,0,38,38,38,,,,,,,,,,,,,,,,,,,,,,,,,,,,,,,,,,,,,,,,,,,,,,,,,,,,,,,,,,,,,,,,,,,,,,,,,,,,491.0620379447937,None,,,,,,,,,,,,,,,,,,,,,,,,,,,,,,,,,,,,,,489.0549159049988,None,490.0388379096985,None,2,1,0.8901810646057129,490.0388379096985,None,,,,,,,1000,001,01,2021_Nov_02_1332,task-switching-replication,2021.2.3,59.869108266162705,
1,40,experiment,01,standing,noswitch,congruant,dashed,square,blue,stimuli/dashed-rectangle.png,stimuli/blue-square.png,2,,,,,,,,,,,,,,,,,,,,,,,,,0,0,0,0,0,0,0,0,0,39,39,39,,,,,,,,,,,,,,,,,,,,,,,,,,,,,,,,,,,,,,,,,,,,,,,,,,,,,,,,,,,,,,,,,,,,,,,,,,,,492.76760601997375,None,,,,,,,,,,,,,,,,,,,,,,,,,,,,,,,,,,,,,,491.2909138202667,None,492.27549290657043,None,2,1,0.39560890197753906,492.27549290657043,None,,,,,,,1000,001,01,2021_Nov_02_1332,task-switching-replication,2021.2.3,59.869108266162705,
1,41,experiment,01,standing,switch,incongruant,solid,triangle,blue,stimuli/solid-rectangle.png,stimuli/blue-triangle.png,1,,,,,,,,,,,,,,,,,,,,,,,,,0,0,0,0,0,0,0,0,0,40,40,40,,,,,,,,,,,,,,,,,,,,,,,,,,,,,,,,,,,,,,,,,,,,,,,,,,,,,,,,,,,,,,,,,,,,,,,,,,,,494.64733481407166,None,,,,,,,,,,,,,,,,,,,,,,,,,,,,,,,,,,,,,,492.9960069656372,None,493.9788599014282,None,1,1,0.5578110218048096,493.9788599014282,None,,,,,,,1000,001,01,2021_Nov_02_1332,task-switching-replication,2021.2.3,59.869108266162705,
1,42,experiment,01,standing,switch,incongruant,dashed,square,blue,stimuli/dashed-rectangle.png,stimuli/blue-square.png,2,,,,,,,,,,,,,,,,,,,,,,,,,0,0,0,0,0,0,0,0,0,41,41,41,,,,,0,0,0,0,,,,,,,,,,,,,,,,,,,,,,,,,,,,,,,,,,,,,,,,,,,,,,,,,,,,,,,,,,,,,,,,,,,,,,496.97186744213104,497.9904899597168,497.0052390098572,None,,,,,,,,,,,,,,,,,,,,,,,,,,,,,,,,,,494.8760268688202,None,495.8600969314575,None,1,0,1.0177788734436035,495.8600969314575,None,,,,,,,1000,001,01,2021_Nov_02_1332,task-switching-replication,2021.2.3,59.869108266162705,
1,42,experiment,01,standing,switch,incongruant,dashed,square,blue,stimuli/dashed-rectangle.png,stimuli/blue-square.png,2,,,,,,,,,,,,,,,,,,,,,,,,,0,0,0,0,0,0,0,0,0,41,41,41,,,,,,,,,,,,,,,,,,,,,,,,,,,,,,,,,,,,,,,,,,,,,,,,,,,,,,,,,,,,,,,,,,,,,,,,,,,,502.0270059108734,None,,,,,,,,,,,,,,,,,,,,,,,,,,,,,,,,,,,,,,,,,,,,,,,,,,,,,1000,001,01,2021_Nov_02_1332,task-switching-replication,2021.2.3,59.869108266162705,
1,43,experiment,01,standing,noswitch,incongruant,dashed,triangle,blue,stimuli/dashed-rectangle.png,stimuli/blue-triangle.png,1,,,,,,,,,,,,,,,,,,,,,,,,,0,0,0,0,0,0,0,0,0,42,42,42,,,,,,,,,,,,,,,,,,,,,,,,,,,,,,,,,,,,,,,,,,,,,,,,,,,,,,,,,,,,,,,,,,,,,,,,,,,,504.05394291877747,None,,,,,,,,,,,,,,,,,,,,,,,,,,,,,,,,,,,,,,502.2233648300171,None,503.20788383483887,None,1,1,0.7355611324310303,503.20788383483887,None,,,,,,,1000,001,01,2021_Nov_02_1332,task-switching-replication,2021.2.3,59.869108266162705,
1,44,experiment,01,standing,switch,congruant,solid,square,blue,stimuli/solid-rectangle.png,stimuli/blue-square.png,1,,,,,,,,,,,,,,,,,,,,,,,,,0,0,0,0,0,0,0,0,0,43,43,43,0,0,0,0,,,,,,,,,,,,,,,,,,,,,,,,,,,,,,,,,,,,,,,,,,,,,,,,,,,,,,,,,,,,,,,,,,,,506.5004914999008,507.55132484436035,506.5325720310211,None,,,,,,,,,,,,,,,,,,,,,,,,,,,,,,,,,,,,,,,,504.2829170227051,None,505.2680950164795,None,2,0,1.1213819980621338,505.2680950164795,None,,,,,,,1000,001,01,2021_Nov_02_1332,task-switching-replication,2021.2.3,59.869108266162705,
1,44,experiment,01,standing,switch,congruant,solid,square,blue,stimuli/solid-rectangle.png,stimuli/blue-square.png,1,,,,,,,,,,,,,,,,,,,,,,,,,0,0,0,0,0,0,0,0,0,43,43,43,,,,,,,,,,,,,,,,,,,,,,,,,,,,,,,,,,,,,,,,,,,,,,,,,,,,,,,,,,,,,,,,,,,,,,,,,,,,511.55427503585815,None,,,,,,,,,,,,,,,,,,,,,,,,,,,,,,,,,,,,,,,,,,,,,,,,,,,,,1000,001,01,2021_Nov_02_1332,task-switching-replication,2021.2.3,59.869108266162705,
1,45,experiment,01,standing,switch,congruant,dashed,triangle,blue,stimuli/dashed-rectangle.png,stimuli/blue-triangle.png,1,,,,,,,,,,,,,,,,,,,,,,,,,0,0,0,0,0,0,0,0,0,44,44,44,,,,,,,,,,,,,,,,,,,,,,,,,,,,,,,,,,,,,,,,,,,,,,,,,,,,,,,,,,,,,,,,,,,,,,,,,,,,513.5816679000854,None,,,,,,,,,,,,,,,,,,,,,,,,,,,,,,,,,,,,,,511.75040102005005,None,512.7334089279175,None,1,1,0.719688892364502,512.7334089279175,None,,,,,,,1000,001,01,2021_Nov_02_1332,task-switching-replication,2021.2.3,59.869108266162705,
1,46,experiment,01,standing,switch,congruant,solid,triangle,blue,stimuli/solid-rectangle.png,stimuli/blue-triangle.png,1,,,,,,,,,,,,,,,,,,,,,,,,,0,0,0,0,0,0,0,0,0,45,45,45,,,,,,,,,,,,,,,,,,,,,,,,,,,,,,,,,,,,,,,,,,,,,,,,,,,,,,,,,,,,,,,,,,,,,,,,,,,,515.2867829799652,None,,,,,,,,,,,,,,,,,,,,,,,,,,,,,,,,,,,,,,513.8103640079498,None,514.7948679924011,None,1,1,0.3549158573150635,514.7948679924011,None,,,,,,,1000,001,01,2021_Nov_02_1332,task-switching-replication,2021.2.3,59.869108266162705,
1,47,experiment,01,standing,switch,incongruant,dashed,square,yellow,stimuli/dashed-rectangle.png,stimuli/yellow-square.png,2,,,,,,,,,,,,,,,,,,,,,,,,,0,0,0,0,0,0,0,0,0,46,46,46,,,,,,,,,,,,,,,,,,,,,,,,,,,,,,,,,,,,,,,,,,,,,,,,,,,,,,,,,,,,,,,,,,,,,,,,,,,,517.0505499839783,None,,,,,,,,,,,,,,,,,,,,,,,,,,,,,,,,,,,,,,515.5157678127289,None,516.500247001648,None,2,1,0.4345219135284424,516.500247001648,None,,,,,,,1000,001,01,2021_Nov_02_1332,task-switching-replication,2021.2.3,59.869108266162705,
1,48,experiment,01,standing,switch,incongruant,solid,triangle,blue,stimuli/solid-rectangle.png,stimuli/blue-triangle.png,1,,,,,,,,,,,,,,,,,,,,,,,,,0,0,0,0,0,0,0,0,0,47,47,47,,,,,,,,,,,,,,,,,,,,,,,,,,,,,,,,,,,,,,,,,,,,,,,,,,,,,,,,,,,,,,,,,,,,,,,,,,,,518.8164110183716,None,,,,,,,,,,,,,,,,,,,,,,,,,,,,,,,,,,,,,,517.2795770168304,None,518.2636399269104,None,1,1,0.4291350841522217,518.2636399269104,None,,,,,,,1000,001,01,2021_Nov_02_1332,task-switching-replication,2021.2.3,59.869108266162705,
1,49,experiment,01,standing,switch,congruant,dashed,triangle,blue,stimuli/dashed-rectangle.png,stimuli/blue-triangle.png,1,,,,,,,,,,,,,,,,,,,,,,,,,0,0,0,0,0,0,0,0,0,48,48,48,,,,,,,,,,,,,,,,,,,,,,,,,,,,,,,,,,,,,,,,,,,,,,,,,,,,,,,,,,,,,,,,,,,,,,,,,,,,521.4061529636383,None,,,,,,,,,,,,,,,,,,,,,,,,,,,,,,,,,,,,,,519.0453460216522,None,520.0297529697418,None,1,1,1.2781109809875488,520.0297529697418,None,,,,,,,1000,001,01,2021_Nov_02_1332,task-switching-replication,2021.2.3,59.869108266162705,
,,,01,,,,,,,,,,,,,,,,,,,,,,,,,,,,,,,,,,0,0,0,0,0,0,0,0,,,,,,,,,,,,,,,,,,,,,,,,,,,,,,,,,,,,,,,,,,,,,,,,,,,,,,,,,,,,,,,,,,,,,,,,,,,,,,,,,,,,,,,,,,,,,,,,,,,,,,,,,,,,,,,,,,,,,,,,,,,,,,,,,,,,,,1000,001,01,2021_Nov_02_1332,task-switching-replication,2021.2.3,59.869108266162705,
2,1,experiment,01,standing,buffer,buffer,dashed,triangle,yellow,stimuli/dashed-rectangle.png,stimuli/yellow-triangle.png,1,,,,,,,,,,,,,,,,,,,,,,,,,0,0,0,0,1,0,1,0,0,0,0,0,,,,,,,,,,,,,,,,,,,,,,,,,,,,,,,,,,,,,,,,,,,,,,,,,,,,,,,,,,,,,,,,,,,,,,,,,,,,527.6124348640442,None,,,,,,,,,,,,,,,,,,,,,,,,,,521.63551902771,None,1,1.8467750549316406,521.63551902771,None,523.5828838348389,None,1,1.904923915863037,523.5828838348389,None,525.6045248508453,None,526.5892779827118,None,1,1,0.9224848747253418,526.5892779827118,None,,,,,,,1000,001,01,2021_Nov_02_1332,task-switching-replication,2021.2.3,59.869108266162705,
2,2,experiment,01,standing,switch,congruant,solid,triangle,blue,stimuli/solid-rectangle.png,stimuli/blue-triangle.png,1,,,,,,,,,,,,,,,,,,,,,,,,,0,0,0,0,1,0,1,0,0,1,1,1,,,,,,,,,,,,,,,,,,,,,,,,,,,,,,,,,,,,,,,,,,,,,,,,,,,,,,,,,,,,,,,,,,,,,,,,,,,,529.5530858039856,None,,,,,,,,,,,,,,,,,,,,,,,,,,,,,,,,,,,,,,527.8415138721466,None,528.8254208564758,None,1,1,0.587393045425415,528.8254208564758,None,,,,,,,1000,001,01,2021_Nov_02_1332,task-switching-replication,2021.2.3,59.869108266162705,
2,3,experiment,01,standing,noswitch,congruant,solid,triangle,blue,stimuli/solid-rectangle.png,stimuli/blue-triangle.png,1,,,,,,,,,,,,,,,,,,,,,,,,,0,0,0,0,1,0,1,0,0,2,2,2,,,,,,,,,,,,,,,,,,,,,,,,,,,,,,,,,,,,,,,,,,,,,,,,,,,,,,,,,,,,,,,,,,,,,,,,,,,,531.494381904602,None,,,,,,,,,,,,,,,,,,,,,,,,,,,,,,,,,,,,,,529.7821698188782,None,530.7664699554443,None,1,1,0.592350959777832,530.7664699554443,None,,,,,,,1000,001,01,2021_Nov_02_1332,task-switching-replication,2021.2.3,59.869108266162705,
2,4,experiment,01,standing,noswitch,incongruant,solid,triangle,yellow,stimuli/solid-rectangle.png,stimuli/yellow-triangle.png,2,,,,,,,,,,,,,,,,,,,,,,,,,0,0,0,0,1,0,1,0,0,3,3,3,0,0,0,0,,,,,,,,,,,,,,,,,,,,,,,,,,,,,,,,,,,,,,,,,,,,,,,,,,,,,,,,,,,,,,,,,,,,533.93840944767,534.9563508033752,533.9716079235077,None,,,,,,,,,,,,,,,,,,,,,,,,,,,,,,,,,,,,,,,,531.7229509353638,None,532.7073428630829,None,1,0,1.1534349918365479,532.7073428630829,None,,,,,,,1000,001,01,2021_Nov_02_1332,task-switching-replication,2021.2.3,59.869108266162705,
2,4,experiment,01,standing,noswitch,incongruant,solid,triangle,yellow,stimuli/solid-rectangle.png,stimuli/yellow-triangle.png,2,,,,,,,,,,,,,,,,,,,,,,,,,0,0,0,0,1,0,1,0,0,3,3,3,,,,,,,,,,,,,,,,,,,,,,,,,,,,,,,,,,,,,,,,,,,,,,,,,,,,,,,,,,,,,,,,,,,,,,,,,,,,538.9952239990234,None,,,,,,,,,,,,,,,,,,,,,,,,,,,,,,,,,,,,,,,,,,,,,,,,,,,,,1000,001,01,2021_Nov_02_1332,task-switching-replication,2021.2.3,59.869108266162705,
2,5,experiment,01,standing,switch,congruant,dashed,square,blue,stimuli/dashed-rectangle.png,stimuli/blue-square.png,2,,,,,,,,,,,,,,,,,,,,,,,,,0,0,0,0,1,0,1,0,0,4,4,4,,,,,,,,,,,,,,,,,,,,,,,,,,,,,,,,,,,,,,,,,,,,,,,,,,,,,,,,,,,,,,,,,,,,,,,,,,,,540.844174861908,None,,,,,,,,,,,,,,,,,,,,,,,,,,,,,,,,,,,,,,539.1914658546448,None,540.1754839420319,None,2,1,0.5543258190155029,540.1754839420319,None,,,,,,,1000,001,01,2021_Nov_02_1332,task-switching-replication,2021.2.3,59.869108266162705,
2,6,experiment,01,standing,noswitch,congruant,dashed,square,blue,stimuli/dashed-rectangle.png,stimuli/blue-square.png,2,,,,,,,,,,,,,,,,,,,,,,,,,0,0,0,0,1,0,1,0,0,5,5,5,,,,,,,,,,,,,,,,,,,,,,,,,,,,,,,,,,,,,,,,,,,,,,,,,,,,,,,,,,,,,,,,,,,,,,,,,,,,542.7264850139618,None,,,,,,,,,,,,,,,,,,,,,,,,,,,,,,,,,,,,,,541.0736448764801,None,542.057639837265,None,2,1,0.524245023727417,542.057639837265,None,,,,,,,1000,001,01,2021_Nov_02_1332,task-switching-replication,2021.2.3,59.869108266162705,
2,7,experiment,01,standing,noswitch,congruant,dashed,square,yellow,stimuli/dashed-rectangle.png,stimuli/yellow-square.png,2,,,,,,,,,,,,,,,,,,,,,,,,,0,0,0,0,1,0,1,0,0,6,6,6,,,,,0,0,0,0,,,,,,,,,,,,,,,,,,,,,,,,,,,,,,,,,,,,,,,,,,,,,,,,,,,,,,,,,,,,,,,,,,,,,,544.4044464826584,545.4230399131775,544.4369349479675,None,,,,,,,,,,,,,,,,,,,,,,,,,,,,,,,,,,542.9552309513092,None,543.939633846283,None,1,0,0.3637969493865967,543.939633846283,None,,,,,,,1000,001,01,2021_Nov_02_1332,task-switching-replication,2021.2.3,59.869108266162705,
2,7,experiment,01,standing,noswitch,congruant,dashed,square,yellow,stimuli/dashed-rectangle.png,stimuli/yellow-square.png,2,,,,,,,,,,,,,,,,,,,,,,,,,0,0,0,0,1,0,1,0,0,6,6,6,,,,,,,,,,,,,,,,,,,,,,,,,,,,,,,,,,,,,,,,,,,,,,,,,,,,,,,,,,,,,,,,,,,,,,,,,,,,549.4630649089813,None,,,,,,,,,,,,,,,,,,,,,,,,,,,,,,,,,,,,,,,,,,,,,,,,,,,,,1000,001,01,2021_Nov_02_1332,task-switching-replication,2021.2.3,59.869108266162705,
2,8,experiment,01,standing,switch,congruant,solid,square,yellow,stimuli/solid-rectangle.png,stimuli/yellow-square.png,2,,,,,,,,,,,,,,,,,,,,,,,,,0,0,0,0,1,0,1,0,0,7,7,7,0,0,0,0,,,,,,,,,,,,,,,,,,,,,,,,,,,,,,,,,,,,,,,,,,,,,,,,,,,,,,,,,,,,,,,,,,,,552.1789538383484,553.2290778160095,552.2101769447327,None,,,,,,,,,,,,,,,,,,,,,,,,,,,,,,,,,,,,,,,,549.6595618724823,None,550.6439290046692,None,None,0,,550.6439290046692,None,,,,,,,1000,001,01,2021_Nov_02_1332,task-switching-replication,2021.2.3,59.869108266162705,
2,8,experiment,01,standing,switch,congruant,solid,square,yellow,stimuli/solid-rectangle.png,stimuli/yellow-square.png,2,,,,,,,,,,,,,,,,,,,,,,,,,0,0,0,0,1,0,1,0,0,7,7,7,,,,,,,,,,,,,,,,,,,,,,,,,,,,,,,,,,,,,,,,,,,,,,,,,,,,,,,,,,,,,,,,,,,,,,,,,,,,557.2326989173889,None,,,,,,,,,,,,,,,,,,,,,,,,,,,,,,,,,,,,,,,,,,,,,,,,,,,,,1000,001,01,2021_Nov_02_1332,task-switching-replication,2021.2.3,59.869108266162705,
2,9,experiment,01,standing,switch,congruant,dashed,square,blue,stimuli/dashed-rectangle.png,stimuli/blue-square.png,2,,,,,,,,,,,,,,,,,,,,,,,,,0,0,0,0,1,0,1,0,0,8,8,8,,,,,,,,,,,,,,,,,,,,,,,,,,,,,,,,,,,,,,,,,,,,,,,,,,,,,,,,,,,,,,,,,,,,,,,,,,,,559.0230598449707,None,,,,,,,,,,,,,,,,,,,,,,,,,,,,,,,,,,,,,,557.4292788505554,None,558.4133529663086,None,2,1,0.4863729476928711,558.4133529663086,None,,,,,,,1000,001,01,2021_Nov_02_1332,task-switching-replication,2021.2.3,59.869108266162705,
2,10,experiment,01,standing,switch,congruant,solid,triangle,yellow,stimuli/solid-rectangle.png,stimuli/yellow-triangle.png,2,,,,,,,,,,,,,,,,,,,,,,,,,0,0,0,0,1,0,1,0,0,9,9,9,,,,,,,,,,,,,,,,,,,,,,,,,,,,,,,,,,,,,,,,,,,,,,,,,,,,,,,,,,,,,,,,,,,,,,,,,,,,561.1382658481598,None,,,,,,,,,,,,,,,,,,,,,,,,,,,,,,,,,,,,,,559.251384973526,None,560.2341928482056,None,2,1,0.7665598392486572,560.2341928482056,None,,,,,,,1000,001,01,2021_Nov_02_1332,task-switching-replication,2021.2.3,59.869108266162705,
2,11,experiment,01,standing,noswitch,incongruant,solid,square,blue,stimuli/solid-rectangle.png,stimuli/blue-square.png,1,,,,,,,,,,,,,,,,,,,,,,,,,0,0,0,0,1,0,1,0,0,10,10,10,,,,,,,,,,,,,,,,,,,,,,,,,,,,,,,,,,,,,,,,,,,,,,,,,,,,,,,,,,,,,,,,,,,,,,,,,,,,562.7862520217896,None,,,,,,,,,,,,,,,,,,,,,,,,,,,,,,,,,,,,,,561.367192029953,None,562.3510179519653,None,1,1,0.3064579963684082,562.3510179519653,None,,,,,,,1000,001,01,2021_Nov_02_1332,task-switching-replication,2021.2.3,59.869108266162705,
2,12,experiment,01,standing,noswitch,incongruant,solid,square,yellow,stimuli/solid-rectangle.png,stimuli/yellow-square.png,2,,,,,,,,,,,,,,,,,,,,,,,,,0,0,0,0,1,0,1,0,0,11,11,11,,,,,,,,,,,,,,,,,,,,,,,,,,,,,,,,,,,,,,,,,,,,,,,,,,,,,,,,,,,,,,,,,,,,,,,,,,,,564.6700780391693,None,,,,,,,,,,,,,,,,,,,,,,,,,,,,,,,,,,,,,,563.0150239467621,None,563.9995648860931,None,2,1,0.5275349617004395,563.9995648860931,None,,,,,,,1000,001,01,2021_Nov_02_1332,task-switching-replication,2021.2.3,59.869108266162705,
2,13,experiment,01,standing,noswitch,congruant,solid,square,yellow,stimuli/solid-rectangle.png,stimuli/yellow-square.png,2,,,,,,,,,,,,,,,,,,,,,,,,,0,0,0,0,1,0,1,0,0,12,12,12,,,,,,,,,,,,,,,,,,,,,,,,,,,,,,,,,,,,,,,,,,,,,,,,,,,,,,,,,,,,,,,,,,,,,,,,,,,,566.4352560043335,None,,,,,,,,,,,,,,,,,,,,,,,,,,,,,,,,,,,,,,564.8998739719391,None,565.8844609260559,None,2,1,0.40626001358032227,565.8844609260559,None,,,,,,,1000,001,01,2021_Nov_02_1332,task-switching-replication,2021.2.3,59.869108266162705,
2,14,experiment,01,standing,noswitch,incongruant,solid,triangle,blue,stimuli/solid-rectangle.png,stimuli/blue-triangle.png,1,,,,,,,,,,,,,,,,,,,,,,,,,0,0,0,0,1,0,1,0,0,13,13,13,,,,,,,,,,,,,,,,,,,,,,,,,,,,,,,,,,,,,,,,,,,,,,,,,,,,,,,,,,,,,,,,,,,,,,,,,,,,568.7292258739471,None,,,,,,,,,,,,,,,,,,,,,,,,,,,,,,,,,,,,,,566.6641118526459,None,567.6476848125458,None,1,1,0.9379830360412598,567.6476848125458,None,,,,,,,1000,001,01,2021_Nov_02_1332,task-switching-replication,2021.2.3,59.869108266162705,
2,15,experiment,01,standing,switch,incongruant,dashed,square,yellow,stimuli/dashed-rectangle.png,stimuli/yellow-square.png,2,,,,,,,,,,,,,,,,,,,,,,,,,0,0,0,0,1,0,1,0,0,14,14,14,,,,,,,,,,,,,,,,,,,,,,,,,,,,,,,,,,,,,,,,,,,,,,,,,,,,,,,,,,,,,,,,,,,,,,,,,,,,570.6721730232239,None,,,,,,,,,,,,,,,,,,,,,,,,,,,,,,,,,,,,,,568.9583899974823,None,569.9429068565369,None,2,1,0.5810351371765137,569.9429068565369,None,,,,,,,1000,001,01,2021_Nov_02_1332,task-switching-replication,2021.2.3,59.869108266162705,
2,16,experiment,01,standing,switch,congruant,solid,triangle,yellow,stimuli/solid-rectangle.png,stimuli/yellow-triangle.png,2,,,,,,,,,,,,,,,,,,,,,,,,,0,0,0,0,1,0,1,0,0,15,15,15,,,,,,,,,,,,,,,,,,,,,,,,,,,,,,,,,,,,,,,,,,,,,,,,,,,,,,,,,,,,,,,,,,,,,,,,,,,,572.4945759773254,None,,,,,,,,,,,,,,,,,,,,,,,,,,,,,,,,,,,,,,570.9009499549866,None,571.8850619792938,None,2,1,0.5056648254394531,571.8850619792938,None,,,,,,,1000,001,01,2021_Nov_02_1332,task-switching-replication,2021.2.3,59.869108266162705,
2,17,experiment,01,standing,noswitch,incongruant,solid,square,blue,stimuli/solid-rectangle.png,stimuli/blue-square.png,1,,,,,,,,,,,,,,,,,,,,,,,,,0,0,0,0,1,0,1,0,0,16,16,16,,,,,,,,,,,,,,,,,,,,,,,,,,,,,,,,,,,,,,,,,,,,,,,,,,,,,,,,,,,,,,,,,,,,,,,,,,,,574.1992478370667,None,,,,,,,,,,,,,,,,,,,,,,,,,,,,,,,,,,,,,,572.7232730388641,None,573.7078719139099,None,1,1,0.3897099494934082,573.7078719139099,None,,,,,,,1000,001,01,2021_Nov_02_1332,task-switching-replication,2021.2.3,59.869108266162705,
2,18,experiment,01,standing,noswitch,congruant,solid,square,blue,stimuli/solid-rectangle.png,stimuli/blue-square.png,1,,,,,,,,,,,,,,,,,,,,,,,,,0,0,0,0,1,0,1,0,0,17,17,17,,,,,,,,,,,,,,,,,,,,,,,,,,,,,,,,,,,,,,,,,,,,,,,,,,,,,,,,,,,,,,,,,,,,,,,,,,,,576.1394679546356,None,,,,,,,,,,,,,,,,,,,,,,,,,,,,,,,,,,,,,,574.4282228946686,None,575.4115388393402,None,1,1,0.5790090560913086,575.4115388393402,None,,,,,,,1000,001,01,2021_Nov_02_1332,task-switching-replication,2021.2.3,59.869108266162705,
2,19,experiment,01,standing,switch,congruant,dashed,triangle,yellow,stimuli/dashed-rectangle.png,stimuli/yellow-triangle.png,1,,,,,,,,,,,,,,,,,,,,,,,,,0,0,0,0,1,0,1,0,0,18,18,18,,,,,,,,,,,,,,,,,,,,,,,,,,,,,,,,,,,,,,,,,,,,,,,,,,,,,,,,,,,,,,,,,,,,,,,,,,,,578.1988909244537,None,,,,,,,,,,,,,,,,,,,,,,,,,,,,,,,,,,,,,,576.3682608604431,None,577.3526430130005,None,1,1,0.7439069747924805,577.3526430130005,None,,,,,,,1000,001,01,2021_Nov_02_1332,task-switching-replication,2021.2.3,59.869108266162705,
2,20,experiment,01,standing,switch,incongruant,solid,triangle,yellow,stimuli/solid-rectangle.png,stimuli/yellow-triangle.png,2,,,,,,,,,,,,,,,,,,,,,,,,,0,0,0,0,1,0,1,0,0,19,19,19,,,,,,,,,,,,,,,,,,,,,,,,,,,,,,,,,,,,,,,,,,,,,,,,,,,,,,,,,,,,,,,,,,,,,,,,,,,,580.374452829361,None,,,,,,,,,,,,,,,,,,,,,,,,,,,,,,,,,,,,,,578.4272449016571,None,579.4107539653778,None,2,1,0.848930835723877,579.4107539653778,None,,,,,,,1000,001,01,2021_Nov_02_1332,task-switching-replication,2021.2.3,59.869108266162705,
2,21,experiment,01,standing,noswitch,incongruant,solid,square,blue,stimuli/solid-rectangle.png,stimuli/blue-square.png,1,,,,,,,,,,,,,,,,,,,,,,,,,0,0,0,0,1,0,1,0,0,20,20,20,,,,,,,,,,,,,,,,,,,,,,,,,,,,,,,,,,,,,,,,,,,,,,,,,,,,,,,,,,,,,,,,,,,,,,,,,,,,582.1391658782959,None,,,,,,,,,,,,,,,,,,,,,,,,,,,,,,,,,,,,,,580.6033618450165,None,581.5870978832245,None,1,1,0.42327404022216797,581.5870978832245,None,,,,,,,1000,001,01,2021_Nov_02_1332,task-switching-replication,2021.2.3,59.869108266162705,
2,22,experiment,01,standing,switch,incongruant,dashed,square,blue,stimuli/dashed-rectangle.png,stimuli/blue-square.png,2,,,,,,,,,,,,,,,,,,,,,,,,,0,0,0,0,1,0,1,0,0,21,21,21,,,,,,,,,,,,,,,,,,,,,,,,,,,,,,,,,,,,,,,,,,,,,,,,,,,,,,,,,,,,,,,,,,,,,,,,,,,,584.6086399555206,None,,,,,,,,,,,,,,,,,,,,,,,,,,,,,,,,,,,,,,582.3675038814545,None,583.3501489162445,None,2,1,1.1584339141845703,583.3501489162445,None,,,,,,,1000,001,01,2021_Nov_02_1332,task-switching-replication,2021.2.3,59.869108266162705,
2,23,experiment,01,standing,noswitch,congruant,dashed,square,blue,stimuli/dashed-rectangle.png,stimuli/blue-square.png,2,,,,,,,,,,,,,,,,,,,,,,,,,0,0,0,0,1,0,1,0,0,22,22,22,,,,,,,,,,,,,,,,,,,,,,,,,,,,,,,,,,,,,,,,,,,,,,,,,,,,,,,,,,,,,,,,,,,,,,,,,,,,586.3721768856049,None,,,,,,,,,,,,,,,,,,,,,,,,,,,,,,,,,,,,,,584.8373398780823,None,585.8215959072113,None,2,1,0.4438490867614746,585.8215959072113,None,,,,,,,1000,001,01,2021_Nov_02_1332,task-switching-replication,2021.2.3,59.869108266162705,
2,24,experiment,01,standing,switch,incongruant,solid,triangle,blue,stimuli/solid-rectangle.png,stimuli/blue-triangle.png,1,,,,,,,,,,,,,,,,,,,,,,,,,0,0,0,0,1,0,1,0,0,23,23,23,,,,,,,,,,,,,,,,,,,,,,,,,,,,,,,,,,,,,,,,,,,,,,,,,,,,,,,,,,,,,,,,,,,,,,,,,,,,588.2549529075623,None,,,,,,,,,,,,,,,,,,,,,,,,,,,,,,,,,,,,,,586.6013958454132,None,587.5855529308319,None,1,1,0.52606201171875,587.5855529308319,None,,,,,,,1000,001,01,2021_Nov_02_1332,task-switching-replication,2021.2.3,59.869108266162705,
2,25,experiment,01,standing,switch,incongruant,dashed,square,yellow,stimuli/dashed-rectangle.png,stimuli/yellow-square.png,2,,,,,,,,,,,,,,,,,,,,,,,,,0,0,0,0,1,0,1,0,0,24,24,24,,,,,0,0,0,0,,,,,,,,,,,,,,,,,,,,,,,,,,,,,,,,,,,,,,,,,,,,,,,,,,,,,,,,,,,,,,,,,,,,,,590.5198315382004,591.5744388103485,590.5531480312347,None,,,,,,,,,,,,,,,,,,,,,,,,,,,,,,,,,,588.483827829361,None,589.4668898582458,None,1,0,0.933474063873291,589.4668898582458,None,,,,,,,1000,001,01,2021_Nov_02_1332,task-switching-replication,2021.2.3,59.869108266162705,
2,25,experiment,01,standing,switch,incongruant,dashed,square,yellow,stimuli/dashed-rectangle.png,stimuli/yellow-square.png,2,,,,,,,,,,,,,,,,,,,,,,,,,0,0,0,0,1,0,1,0,0,24,24,24,,,,,,,,,,,,,,,,,,,,,,,,,,,,,,,,,,,,,,,,,,,,,,,,,,,,,,,,,,,,,,,,,,,,,,,,,,,,595.5771098136902,None,,,,,,,,,,,,,,,,,,,,,,,,,,,,,,,,,,,,,,,,,,,,,,,,,,,,,1000,001,01,2021_Nov_02_1332,task-switching-replication,2021.2.3,59.869108266162705,
2,26,experiment,01,standing,noswitch,incongruant,dashed,triangle,yellow,stimuli/dashed-rectangle.png,stimuli/yellow-triangle.png,1,,,,,,,,,,,,,,,,,,,,,,,,,0,0,0,0,1,0,1,0,0,25,25,25,,,,,,,,,,,,,,,,,,,,,,,,,,,,,,,,,,,,,,,,,,,,,,,,,,,,,,,,,,,,,,,,,,,,,,,,,,,,598.3118360042572,None,,,,,,,,,,,,,,,,,,,,,,,,,,,,,,,,,,,,,,595.7733709812164,None,596.7573988437653,None,1,1,1.4063780307769775,596.7573988437653,None,,,,,,,1000,001,01,2021_Nov_02_1332,task-switching-replication,2021.2.3,59.869108266162705,
2,27,experiment,01,standing,switch,congruant,solid,triangle,blue,stimuli/solid-rectangle.png,stimuli/blue-triangle.png,1,,,,,,,,,,,,,,,,,,,,,,,,,0,0,0,0,1,0,1,0,0,26,26,26,,,,,,,,,,,,,,,,,,,,,,,,,,,,,,,,,,,,,,,,,,,,,,,,,,,,,,,,,,,,,,,,,,,,,,,,,,,,600.3710629940033,None,,,,,,,,,,,,,,,,,,,,,,,,,,,,,,,,,,,,,,598.5408489704132,None,599.5249009132385,None,1,1,0.7314560413360596,599.5249009132385,None,,,,,,,1000,001,01,2021_Nov_02_1332,task-switching-replication,2021.2.3,59.869108266162705,
2,28,experiment,01,standing,switch,congruant,dashed,triangle,yellow,stimuli/dashed-rectangle.png,stimuli/yellow-triangle.png,1,,,,,,,,,,,,,,,,,,,,,,,,,0,0,0,0,1,0,1,0,0,27,27,27,,,,,,,,,,,,,,,,,,,,,,,,,,,,,,,,,,,,,,,,,,,,,,,,,,,,,,,,,,,,,,,,,,,,,,,,,,,,602.1920409202576,None,,,,,,,,,,,,,,,,,,,,,,,,,,,,,,,,,,,,,,600.5999448299408,None,601.5827548503876,None,1,1,0.4920670986175537,601.5827548503876,None,,,,,,,1000,001,01,2021_Nov_02_1332,task-switching-replication,2021.2.3,59.869108266162705,
2,29,experiment,01,standing,switch,congruant,solid,square,blue,stimuli/solid-rectangle.png,stimuli/blue-square.png,1,,,,,,,,,,,,,,,,,,,,,,,,,0,0,0,0,1,0,1,0,0,28,28,28,,,,,,,,,,,,,,,,,,,,,,,,,,,,,,,,,,,,,,,,,,,,,,,,,,,,,,,,,,,,,,,,,,,,,,,,,,,,604.0713818073273,None,,,,,,,,,,,,,,,,,,,,,,,,,,,,,,,,,,,,,,602.4207239151001,None,603.4031898975372,None,1,1,0.5351119041442871,603.4031898975372,None,,,,,,,1000,001,01,2021_Nov_02_1332,task-switching-replication,2021.2.3,59.869108266162705,
2,30,experiment,01,standing,noswitch,incongruant,solid,square,yellow,stimuli/solid-rectangle.png,stimuli/yellow-square.png,2,,,,,,,,,,,,,,,,,,,,,,,,,0,0,0,0,1,0,1,0,0,29,29,29,,,,,,,,,,,,,,,,,,,,,,,,,,,,,,,,,,,,,,,,,,,,,,,,,,,,,,,,,,,,,,,,,,,,,,,,,,,,606.2479898929596,None,,,,,,,,,,,,,,,,,,,,,,,,,,,,,,,,,,,,,,604.299801826477,None,605.2829759120941,None,2,1,0.8166100978851318,605.2829759120941,None,,,,,,,1000,001,01,2021_Nov_02_1332,task-switching-replication,2021.2.3,59.869108266162705,
2,31,experiment,01,standing,switch,incongruant,dashed,triangle,yellow,stimuli/dashed-rectangle.png,stimuli/yellow-triangle.png,1,,,,,,,,,,,,,,,,,,,,,,,,,0,0,0,0,1,0,1,0,0,30,30,30,,,,,,,,,,,,,,,,,,,,,,,,,,,,,,,,,,,,,,,,,,,,,,,,,,,,,,,,,,,,,,,,,,,,,,,,,,,,608.4289138317108,None,,,,,,,,,,,,,,,,,,,,,,,,,,,,,,,,,,,,,,606.4768459796906,None,607.459972858429,None,1,1,0.8394830226898193,607.459972858429,None,,,,,,,1000,001,01,2021_Nov_02_1332,task-switching-replication,2021.2.3,59.869108266162705,
2,32,experiment,01,standing,switch,incongruant,solid,triangle,yellow,stimuli/solid-rectangle.png,stimuli/yellow-triangle.png,2,,,,,,,,,,,,,,,,,,,,,,,,,0,0,0,0,1,0,1,0,0,31,31,31,,,,,,,,,,,,,,,,,,,,,,,,,,,,,,,,,,,,,,,,,,,,,,,,,,,,,,,,,,,,,,,,,,,,,,,,,,,,610.3115229606628,None,,,,,,,,,,,,,,,,,,,,,,,,,,,,,,,,,,,,,,608.6574749946594,None,609.6419789791107,None,2,1,0.5364749431610107,609.6419789791107,None,,,,,,,1000,001,01,2021_Nov_02_1332,task-switching-replication,2021.2.3,59.869108266162705,
2,33,experiment,01,standing,switch,congruant,dashed,square,yellow,stimuli/dashed-rectangle.png,stimuli/yellow-square.png,2,,,,,,,,,,,,,,,,,,,,,,,,,0,0,0,0,1,0,1,0,0,32,32,32,,,,,,,,,,,,,,,,,,,,,,,,,,,,,,,,,,,,,,,,,,,,,,,,,,,,,,,,,,,,,,,,,,,,,,,,,,,,612.3687779903412,None,,,,,,,,,,,,,,,,,,,,,,,,,,,,,,,,,,,,,,610.5412948131561,None,611.5239019393921,None,2,1,0.7536020278930664,611.5239019393921,None,,,,,,,1000,001,01,2021_Nov_02_1332,task-switching-replication,2021.2.3,59.869108266162705,
2,34,experiment,01,standing,noswitch,incongruant,dashed,triangle,blue,stimuli/dashed-rectangle.png,stimuli/blue-triangle.png,1,,,,,,,,,,,,,,,,,,,,,,,,,0,0,0,0,1,0,1,0,0,33,33,33,,,,,,,,,,,,,,,,,,,,,,,,,,,,,,,,,,,,,,,,,,,,,,,,,,,,,,,,,,,,,,,,,,,,,,,,,,,,614.3684618473053,None,,,,,,,,,,,,,,,,,,,,,,,,,,,,,,,,,,,,,,612.5974788665771,None,613.5802099704742,None,1,1,0.6593379974365234,613.5802099704742,None,,,,,,,1000,001,01,2021_Nov_02_1332,task-switching-replication,2021.2.3,59.869108266162705,
2,35,experiment,01,standing,noswitch,congruant,dashed,triangle,blue,stimuli/dashed-rectangle.png,stimuli/blue-triangle.png,1,,,,,,,,,,,,,,,,,,,,,,,,,0,0,0,0,1,0,1,0,0,34,34,34,,,,,,,,,,,,,,,,,,,,,,,,,,,,,,,,,,,,,,,,,,,,,,,,,,,,,,,,,,,,,,,,,,,,,,,,,,,,616.4258849620819,None,,,,,,,,,,,,,,,,,,,,,,,,,,,,,,,,,,,,,,614.5977280139923,None,615.5803608894348,None,1,1,0.7508270740509033,615.5803608894348,None,,,,,,,1000,001,01,2021_Nov_02_1332,task-switching-replication,2021.2.3,59.869108266162705,
2,36,experiment,01,standing,noswitch,congruant,dashed,triangle,blue,stimuli/dashed-rectangle.png,stimuli/blue-triangle.png,1,,,,,,,,,,,,,,,,,,,,,,,,,0,0,0,0,1,0,1,0,0,35,35,35,,,,,,,,,,,,,,,,,,,,,,,,,,,,,,,,,,,,,,,,,,,,,,,,,,,,,,,,,,,,,,,,,,,,,,,,,,,,618.4854798316956,None,,,,,,,,,,,,,,,,,,,,,,,,,,,,,,,,,,,,,,616.6548340320587,None,617.6395738124847,None,1,1,0.7167870998382568,617.6395738124847,None,,,,,,,1000,001,01,2021_Nov_02_1332,task-switching-replication,2021.2.3,59.869108266162705,
2,37,experiment,01,standing,switch,incongruant,solid,triangle,yellow,stimuli/solid-rectangle.png,stimuli/yellow-triangle.png,2,,,,,,,,,,,,,,,,,,,,,,,,,0,0,0,0,1,0,1,0,0,36,36,36,,,,,,,,,,,,,,,,,,,,,,,,,,,,,,,,,,,,,,,,,,,,,,,,,,,,,,,,,,,,,,,,,,,,,,,,,,,,620.8423709869385,None,,,,,,,,,,,,,,,,,,,,,,,,,,,,,,,,,,,,,,618.7142019271851,None,619.6982610225677,None,2,1,0.9859540462493896,619.6982610225677,None,,,,,,,1000,001,01,2021_Nov_02_1332,task-switching-replication,2021.2.3,59.869108266162705,
2,38,experiment,01,standing,switch,congruant,dashed,square,blue,stimuli/dashed-rectangle.png,stimuli/blue-square.png,2,,,,,,,,,,,,,,,,,,,,,,,,,0,0,0,0,1,0,1,0,0,37,37,37,,,,,,,,,,,,,,,,,,,,,,,,,,,,,,,,,,,,,,,,,,,,,,,,,,,,,,,,,,,,,,,,,,,,,,,,,,,,622.7834548950195,None,,,,,,,,,,,,,,,,,,,,,,,,,,,,,,,,,,,,,,621.0714809894562,None,622.0558109283447,None,2,1,0.5815939903259277,622.0558109283447,None,,,,,,,1000,001,01,2021_Nov_02_1332,task-switching-replication,2021.2.3,59.869108266162705,
2,39,experiment,01,standing,noswitch,incongruant,dashed,triangle,blue,stimuli/dashed-rectangle.png,stimuli/blue-triangle.png,1,,,,,,,,,,,,,,,,,,,,,,,,,0,0,0,0,1,0,1,0,0,38,38,38,,,,,,,,,,,,,,,,,,,,,,,,,,,,,,,,,,,,,,,,,,,,,,,,,,,,,,,,,,,,,,,,,,,,,,,,,,,,624.9642078876495,None,,,,,,,,,,,,,,,,,,,,,,,,,,,,,,,,,,,,,,623.0126299858093,None,623.9966158866882,None,1,1,0.8440110683441162,623.9966158866882,None,,,,,,,1000,001,01,2021_Nov_02_1332,task-switching-replication,2021.2.3,59.869108266162705,
2,40,experiment,01,standing,noswitch,congruant,dashed,triangle,blue,stimuli/dashed-rectangle.png,stimuli/blue-triangle.png,1,,,,,,,,,,,,,,,,,,,,,,,,,0,0,0,0,1,0,1,0,0,39,39,39,,,,,,,,,,,,,,,,,,,,,,,,,,,,,,,,,,,,,,,,,,,,,,,,,,,,,,,,,,,,,,,,,,,,,,,,,,,,627.0239160060883,None,,,,,,,,,,,,,,,,,,,,,,,,,,,,,,,,,,,,,,625.1941158771515,None,626.1779220104218,None,1,1,0.7338747978210449,626.1779220104218,None,,,,,,,1000,001,01,2021_Nov_02_1332,task-switching-replication,2021.2.3,59.869108266162705,
2,41,experiment,01,standing,noswitch,incongruant,dashed,square,yellow,stimuli/dashed-rectangle.png,stimuli/yellow-square.png,2,,,,,,,,,,,,,,,,,,,,,,,,,0,0,0,0,1,0,1,0,0,40,40,40,,,,,,,,,,,,,,,,,,,,,,,,,,,,,,,,,,,,,,,,,,,,,,,,,,,,,,,,,,,,,,,,,,,,,,,,,,,,628.7298150062561,None,,,,,,,,,,,,,,,,,,,,,,,,,,,,,,,,,,,,,,627.2528989315033,None,628.2365508079529,None,2,1,0.36493706703186035,628.2365508079529,None,,,,,,,1000,001,01,2021_Nov_02_1332,task-switching-replication,2021.2.3,59.869108266162705,
2,42,experiment,01,standing,noswitch,congruant,dashed,square,yellow,stimuli/dashed-rectangle.png,stimuli/yellow-square.png,2,,,,,,,,,,,,,,,,,,,,,,,,,0,0,0,0,1,0,1,0,0,41,41,41,,,,,,,,,,,,,,,,,,,,,,,,,,,,,,,,,,,,,,,,,,,,,,,,,,,,,,,,,,,,,,,,,,,,,,,,,,,,630.4927790164948,None,,,,,,,,,,,,,,,,,,,,,,,,,,,,,,,,,,,,,,628.9585149288177,None,629.9423518180847,None,2,1,0.45897698402404785,629.9423518180847,None,,,,,,,1000,001,01,2021_Nov_02_1332,task-switching-replication,2021.2.3,59.869108266162705,
2,43,experiment,01,standing,noswitch,incongruant,dashed,triangle,yellow,stimuli/dashed-rectangle.png,stimuli/yellow-triangle.png,1,,,,,,,,,,,,,,,,,,,,,,,,,0,0,0,0,1,0,1,0,0,42,42,42,,,,,,,,,,,,,,,,,,,,,,,,,,,,,,,,,,,,,,,,,,,,,,,,,,,,,,,,,,,,,,,,,,,,,,,,,,,,632.7289378643036,None,,,,,,,,,,,,,,,,,,,,,,,,,,,,,,,,,,,,,,630.7211668491364,None,631.7053799629211,None,1,1,0.9079828262329102,631.7053799629211,None,,,,,,,1000,001,01,2021_Nov_02_1332,task-switching-replication,2021.2.3,59.869108266162705,
2,44,experiment,01,standing,switch,incongruant,solid,square,yellow,stimuli/solid-rectangle.png,stimuli/yellow-square.png,2,,,,,,,,,,,,,,,,,,,,,,,,,0,0,0,0,1,0,1,0,0,43,43,43,,,,,,,,,,,,,,,,,,,,,,,,,,,,,,,,,,,,,,,,,,,,,,,,,,,,,,,,,,,,,,,,,,,,,,,,,,,,635.141923904419,None,,,,,,,,,,,,,,,,,,,,,,,,,,,,,,,,,,,,,,632.9576098918915,None,633.9417369365692,None,2,1,1.0665528774261475,633.9417369365692,None,,,,,,,1000,001,01,2021_Nov_02_1332,task-switching-replication,2021.2.3,59.869108266162705,
2,45,experiment,01,standing,noswitch,incongruant,solid,square,blue,stimuli/solid-rectangle.png,stimuli/blue-square.png,1,,,,,,,,,,,,,,,,,,,,,,,,,0,0,0,0,1,0,1,0,0,44,44,44,,,,,,,,,,,,,,,,,,,,,,,,,,,,,,,,,,,,,,,,,,,,,,,,,,,,,,,,,,,,,,,,,,,,,,,,,,,,637.1416518688202,None,,,,,,,,,,,,,,,,,,,,,,,,,,,,,,,,,,,,,,635.371120929718,None,636.3554258346558,None,1,1,0.6328890323638916,636.3554258346558,None,,,,,,,1000,001,01,2021_Nov_02_1332,task-switching-replication,2021.2.3,59.869108266162705,
2,46,experiment,01,standing,noswitch,congruant,solid,triangle,blue,stimuli/solid-rectangle.png,stimuli/blue-triangle.png,1,,,,,,,,,,,,,,,,,,,,,,,,,0,0,0,0,1,0,1,0,0,45,45,45,,,,,,,,,,,,,,,,,,,,,,,,,,,,,,,,,,,,,,,,,,,,,,,,,,,,,,,,,,,,,,,,,,,,,,,,,,,,639.378937959671,None,,,,,,,,,,,,,,,,,,,,,,,,,,,,,,,,,,,,,,637.3707389831543,None,638.3553688526154,None,1,1,0.9136829376220703,638.3553688526154,None,,,,,,,1000,001,01,2021_Nov_02_1332,task-switching-replication,2021.2.3,59.869108266162705,
2,47,experiment,01,standing,switch,congruant,dashed,triangle,blue,stimuli/dashed-rectangle.png,stimuli/blue-triangle.png,1,,,,,,,,,,,,,,,,,,,,,,,,,0,0,0,0,1,0,1,0,0,46,46,46,,,,,0,0,0,0,,,,,,,,,,,,,,,,,,,,,,,,,,,,,,,,,,,,,,,,,,,,,,,,,,,,,,,,,,,,,,,,,,,,,,641.4132803678513,642.4655659198761,641.4458060264587,None,,,,,,,,,,,,,,,,,,,,,,,,,,,,,,,,,,639.6079528331757,None,640.5924248695374,None,2,0,0.7000889778137207,640.5924248695374,None,,,,,,,1000,001,01,2021_Nov_02_1332,task-switching-replication,2021.2.3,59.869108266162705,
2,47,experiment,01,standing,switch,congruant,dashed,triangle,blue,stimuli/dashed-rectangle.png,stimuli/blue-triangle.png,1,,,,,,,,,,,,,,,,,,,,,,,,,0,0,0,0,1,0,1,0,0,46,46,46,,,,,,,,,,,,,,,,,,,,,,,,,,,,,,,,,,,,,,,,,,,,,,,,,,,,,,,,,,,,,,,,,,,,,,,,,,,,646.4694550037384,None,,,,,,,,,,,,,,,,,,,,,,,,,,,,,,,,,,,,,,,,,,,,,,,,,,,,,1000,001,01,2021_Nov_02_1332,task-switching-replication,2021.2.3,59.869108266162705,
2,48,experiment,01,standing,switch,incongruant,solid,square,yellow,stimuli/solid-rectangle.png,stimuli/yellow-square.png,2,,,,,,,,,,,,,,,,,,,,,,,,,0,0,0,0,1,0,1,0,0,47,47,47,,,,,,,,,,,,,,,,,,,,,,,,,,,,,,,,,,,,,,,,,,,,,,,,,,,,,,,,,,,,,,,,,,,,,,,,,,,,648.7296478748322,None,,,,,,,,,,,,,,,,,,,,,,,,,,,,,,,,,,,,,,646.6657249927521,None,647.6486468315125,None,2,1,0.9647960662841797,647.6486468315125,None,,,,,,,1000,001,01,2021_Nov_02_1332,task-switching-replication,2021.2.3,59.869108266162705,
2,49,experiment,01,standing,switch,incongruant,dashed,triangle,yellow,stimuli/dashed-rectangle.png,stimuli/yellow-triangle.png,1,,,,,,,,,,,,,,,,,,,,,,,,,0,0,0,0,1,0,1,0,0,48,48,48,,,,,,,,,,,,,,,,,,,,,,,,,,,,,,,,,,,,,,,,,,,,,,,,,,,,,,,,,,,,,,,,,,,,,,,,,,,,650.613401889801,None,,,,,,,,,,,,,,,,,,,,,,,,,,,,,,,,,,,,,,648.9578750133514,None,649.940575838089,None,1,1,0.5432751178741455,649.940575838089,None,,,,,,,1000,001,01,2021_Nov_02_1332,task-switching-replication,2021.2.3,59.869108266162705,
,,,01,,,,,,,,,,,,,,,,,,,,,,,,,,,,,,,,,,0,0,0,0,1,0,1,0,,,,,,,,,,,,,,,,,,,,,,,,,,,,,,,,,,,,,,,,,,,,,,,,,,,,,,,,,,,,,,,,,,,,,,,,,,,,,,,,,,,,,,,,,,,,,,,,,,,,,,,,,,,,,,,,,,,,,,,,,,,,,,,,,,,,,,1000,001,01,2021_Nov_02_1332,task-switching-replication,2021.2.3,59.869108266162705,
3,1,experiment,01,standing,buffer,buffer,solid,square,yellow,stimuli/solid-rectangle.png,stimuli/yellow-square.png,2,,,,,,,,,,,,,,,,,,,,,,,,,0,0,0,0,2,0,2,0,0,0,0,0,,,,,,,,,,,,,,,,,,,,,,,,,,,,,,,,,,,,,,,,,,,,,,,,,,,,,,,,,,,,,,,,,,,,,,,,,,,,661.2937710285187,None,,,,,,,,,,,,,,,,,,,,,,,,,,650.8426189422607,None,2,1.9175169467926025,650.8426189422607,None,652.8496809005737,None,2,6.486097097396851,652.8496809005737,None,659.4639530181885,None,660.4472229480743,None,2,1,0.7299020290374756,660.4472229480743,None,,,,,,,1000,001,01,2021_Nov_02_1332,task-switching-replication,2021.2.3,59.869108266162705,
3,2,experiment,01,standing,noswitch,incongruant,solid,triangle,blue,stimuli/solid-rectangle.png,stimuli/blue-triangle.png,1,,,,,,,,,,,,,,,,,,,,,,,,,0,0,0,0,2,0,2,0,0,1,1,1,,,,,,,,,,,,,,,,,,,,,,,,,,,,,,,,,,,,,,,,,,,,,,,,,,,,,,,,,,,,,,,,,,,,,,,,,,,,663.2367928028107,None,,,,,,,,,,,,,,,,,,,,,,,,,,,,,,,,,,,,,,661.5229279994965,None,662.5072629451752,None,1,1,0.5956039428710938,662.5072629451752,None,,,,,,,1000,001,01,2021_Nov_02_1332,task-switching-replication,2021.2.3,59.869108266162705,
3,3,experiment,01,standing,noswitch,incongruant,solid,square,yellow,stimuli/solid-rectangle.png,stimuli/yellow-square.png,2,,,,,,,,,,,,,,,,,,,,,,,,,0,0,0,0,2,0,2,0,0,2,2,2,,,,,,,,,,,,,,,,,,,,,,,,,,,,,,,,,,,,,,,,,,,,,,,,,,,,,,,,,,,,,,,,,,,,,,,,,,,,664.941025018692,None,,,,,,,,,,,,,,,,,,,,,,,,,,,,,,,,,,,,,,663.4657428264618,None,664.4499509334564,None,2,1,0.37476396560668945,664.4499509334564,None,,,,,,,1000,001,01,2021_Nov_02_1332,task-switching-replication,2021.2.3,59.869108266162705,
3,4,experiment,01,standing,switch,incongruant,dashed,triangle,blue,stimuli/dashed-rectangle.png,stimuli/blue-triangle.png,1,,,,,,,,,,,,,,,,,,,,,,,,,0,0,0,0,2,0,2,0,0,3,3,3,,,,,,,,,,,,,,,,,,,,,,,,,,,,,,,,,,,,,,,,,,,,,,,,,,,,,,,,,,,,,,,,,,,,,,,,,,,,666.649603843689,None,,,,,,,,,,,,,,,,,,,,,,,,,,,,,,,,,,,,,,665.1700348854065,None,666.1544728279114,None,1,1,0.3466939926147461,666.1544728279114,None,,,,,,,1000,001,01,2021_Nov_02_1332,task-switching-replication,2021.2.3,59.869108266162705,
3,5,experiment,01,standing,switch,congruant,solid,triangle,blue,stimuli/solid-rectangle.png,stimuli/blue-triangle.png,1,,,,,,,,,,,,,,,,,,,,,,,,,0,0,0,0,2,0,2,0,0,4,4,4,0,0,0,0,,,,,,,,,,,,,,,,,,,,,,,,,,,,,,,,,,,,,,,,,,,,,,,,,,,,,,,,,,,,,,,,,,,,668.9762514829636,670.0285339355469,669.0088429450989,None,,,,,,,,,,,,,,,,,,,,,,,,,,,,,,,,,,,,,,,,666.8788650035858,None,667.8632409572601,None,2,0,1.028714895248413,667.8632409572601,None,,,,,,,1000,001,01,2021_Nov_02_1332,task-switching-replication,2021.2.3,59.869108266162705,
3,5,experiment,01,standing,switch,congruant,solid,triangle,blue,stimuli/solid-rectangle.png,stimuli/blue-triangle.png,1,,,,,,,,,,,,,,,,,,,,,,,,,0,0,0,0,2,0,2,0,0,4,4,4,,,,,,,,,,,,,,,,,,,,,,,,,,,,,,,,,,,,,,,,,,,,,,,,,,,,,,,,,,,,,,,,,,,,,,,,,,,,674.0341458320618,None,,,,,,,,,,,,,,,,,,,,,,,,,,,,,,,,,,,,,,,,,,,,,,,,,,,,,1000,001,01,2021_Nov_02_1332,task-switching-replication,2021.2.3,59.869108266162705,
3,6,experiment,01,standing,switch,incongruant,dashed,square,yellow,stimuli/dashed-rectangle.png,stimuli/yellow-square.png,2,,,,,,,,,,,,,,,,,,,,,,,,,0,0,0,0,2,0,2,0,0,5,5,5,,,,,,,,,,,,,,,,,,,,,,,,,,,,,,,,,,,,,,,,,,,,,,,,,,,,,,,,,,,,,,,,,,,,,,,,,,,,676.1791269779205,None,,,,,,,,,,,,,,,,,,,,,,,,,,,,,,,,,,,,,,674.2307569980621,None,675.2152960300446,None,2,1,0.8687231540679932,675.2152960300446,None,,,,,,,1000,001,01,2021_Nov_02_1332,task-switching-replication,2021.2.3,59.869108266162705,
3,7,experiment,01,standing,switch,congruant,solid,triangle,yellow,stimuli/solid-rectangle.png,stimuli/yellow-triangle.png,2,,,,,,,,,,,,,,,,,,,,,,,,,0,0,0,0,2,0,2,0,0,6,6,6,,,,,,,,,,,,,,,,,,,,,,,,,,,,,,,,,,,,,,,,,,,,,,,,,,,,,,,,,,,,,,,,,,,,,,,,,,,,678.6515238285065,None,,,,,,,,,,,,,,,,,,,,,,,,,,,,,,,,,,,,,,676.4079990386963,None,677.3924629688263,None,2,1,1.109571933746338,677.3924629688263,None,,,,,,,1000,001,01,2021_Nov_02_1332,task-switching-replication,2021.2.3,59.869108266162705,
3,8,experiment,01,standing,noswitch,incongruant,solid,triangle,blue,stimuli/solid-rectangle.png,stimuli/blue-triangle.png,1,,,,,,,,,,,,,,,,,,,,,,,,,0,0,0,0,2,0,2,0,0,7,7,7,,,,,,,,,,,,,,,,,,,,,,,,,,,,,,,,,,,,,,,,,,,,,,,,,,,,,,,,,,,,,,,,,,,,,,,,,,,,680.4763870239258,None,,,,,,,,,,,,,,,,,,,,,,,,,,,,,,,,,,,,,,678.8804688453674,None,679.8646988868713,None,1,1,0.4779801368713379,679.8646988868713,None,,,,,,,1000,001,01,2021_Nov_02_1332,task-switching-replication,2021.2.3,59.869108266162705,
3,9,experiment,01,standing,noswitch,congruant,solid,triangle,blue,stimuli/solid-rectangle.png,stimuli/blue-triangle.png,1,,,,,,,,,,,,,,,,,,,,,,,,,0,0,0,0,2,0,2,0,0,8,8,8,,,,,,,,,,,,,,,,,,,,,,,,,,,,,,,,,,,,,,,,,,,,,,,,,,,,,,,,,,,,,,,,,,,,,,,,,,,,682.3039479255676,None,,,,,,,,,,,,,,,,,,,,,,,,,,,,,,,,,,,,,,680.705228805542,None,681.6895530223846,None,1,1,0.40128087997436523,681.6895530223846,None,,,,,,,1000,001,01,2021_Nov_02_1332,task-switching-replication,2021.2.3,59.869108266162705,
3,10,experiment,01,standing,switch,congruant,dashed,triangle,blue,stimuli/dashed-rectangle.png,stimuli/blue-triangle.png,1,,,,,,,,,,,,,,,,,,,,,,,,,0,0,0,0,2,0,2,0,0,9,9,9,,,,,,,,,,,,,,,,,,,,,,,,,,,,,,,,,,,,,,,,,,,,,,,,,,,,,,,,,,,,,,,,,,,,,,,,,,,,684.2979729175568,None,,,,,,,,,,,,,,,,,,,,,,,,,,,,,,,,,,,,,,682.4685428142548,None,683.4528369903564,None,1,1,0.6940770149230957,683.4528369903564,None,,,,,,,1000,001,01,2021_Nov_02_1332,task-switching-replication,2021.2.3,59.869108266162705,
3,11,experiment,01,standing,noswitch,congruant,dashed,triangle,blue,stimuli/dashed-rectangle.png,stimuli/blue-triangle.png,1,,,,,,,,,,,,,,,,,,,,,,,,,0,0,0,0,2,0,2,0,0,10,10,10,,,,,,,,,,,,,,,,,,,,,,,,,,,,,,,,,,,,,,,,,,,,,,,,,,,,,,,,,,,,,,,,,,,,,,,,,,,,685.9437248706818,None,,,,,,,,,,,,,,,,,,,,,,,,,,,,,,,,,,,,,,684.5267639160156,None,685.5109488964081,None,1,1,0.3108999729156494,685.5109488964081,None,,,,,,,1000,001,01,2021_Nov_02_1332,task-switching-replication,2021.2.3,59.869108266162705,
3,12,experiment,01,standing,switch,congruant,solid,square,blue,stimuli/solid-rectangle.png,stimuli/blue-square.png,1,,,,,,,,,,,,,,,,,,,,,,,,,0,0,0,0,2,0,2,0,0,11,11,11,,,,,,,,,,,,,,,,,,,,,,,,,,,,,,,,,,,,,,,,,,,,,,,,,,,,,,,,,,,,,,,,,,,,,,,,,,,,687.9454009532928,None,,,,,,,,,,,,,,,,,,,,,,,,,,,,,,,,,,,,,,686.1725888252258,None,687.158353805542,None,1,1,0.6706891059875488,687.158353805542,None,,,,,,,1000,001,01,2021_Nov_02_1332,task-switching-replication,2021.2.3,59.869108266162705,
3,13,experiment,01,standing,noswitch,congruant,solid,square,blue,stimuli/solid-rectangle.png,stimuli/blue-square.png,1,,,,,,,,,,,,,,,,,,,,,,,,,0,0,0,0,2,0,2,0,0,12,12,12,,,,,,,,,,,,,,,,,,,,,,,,,,,,,,,,,,,,,,,,,,,,,,,,,,,,,,,,,,,,,,,,,,,,,,,,,,,,689.6497278213501,None,,,,,,,,,,,,,,,,,,,,,,,,,,,,,,,,,,,,,,688.1743910312653,None,689.15815782547,None,1,1,0.3687920570373535,689.15815782547,None,,,,,,,1000,001,01,2021_Nov_02_1332,task-switching-replication,2021.2.3,59.869108266162705,
3,14,experiment,01,standing,noswitch,incongruant,solid,square,yellow,stimuli/solid-rectangle.png,stimuli/yellow-square.png,2,,,,,,,,,,,,,,,,,,,,,,,,,0,0,0,0,2,0,2,0,0,13,13,13,,,,,,,,,,,,,,,,,,,,,,,,,,,,,,,,,,,,,,,,,,,,,,,,,,,,,,,,,,,,,,,,,,,,,,,,,,,,691.4143199920654,None,,,,,,,,,,,,,,,,,,,,,,,,,,,,,,,,,,,,,,689.8785979747772,None,690.8639438152313,None,2,1,0.4443230628967285,690.8639438152313,None,,,,,,,1000,001,01,2021_Nov_02_1332,task-switching-replication,2021.2.3,59.869108266162705,
3,15,experiment,01,standing,switch,congruant,dashed,square,blue,stimuli/dashed-rectangle.png,stimuli/blue-square.png,2,,,,,,,,,,,,,,,,,,,,,,,,,0,0,0,0,2,0,2,0,0,14,14,14,,,,,,,,,,,,,,,,,,,,,,,,,,,,,,,,,,,,,,,,,,,,,,,,,,,,,,,,,,,,,,,,,,,,,,,,,,,,693.5907158851624,None,,,,,,,,,,,,,,,,,,,,,,,,,,,,,,,,,,,,,,691.6432528495789,None,692.6271939277649,None,2,1,0.835784912109375,692.6271939277649,None,,,,,,,1000,001,01,2021_Nov_02_1332,task-switching-replication,2021.2.3,59.869108266162705,
3,16,experiment,01,standing,switch,congruant,solid,triangle,yellow,stimuli/solid-rectangle.png,stimuli/yellow-triangle.png,2,,,,,,,,,,,,,,,,,,,,,,,,,0,0,0,0,2,0,2,0,0,15,15,15,0,0,0,0,,,,,,,,,,,,,,,,,,,,,,,,,,,,,,,,,,,,,,,,,,,,,,,,,,,,,,,,,,,,,,,,,,,,695.4475203752518,696.4680328369141,695.4797458648682,None,,,,,,,,,,,,,,,,,,,,,,,,,,,,,,,,,,,,,,,,693.8192689418793,None,694.8031690120697,None,1,0,0.5336689949035645,694.8031690120697,None,,,,,,,1000,001,01,2021_Nov_02_1332,task-switching-replication,2021.2.3,59.869108266162705,
3,16,experiment,01,standing,switch,congruant,solid,triangle,yellow,stimuli/solid-rectangle.png,stimuli/yellow-triangle.png,2,,,,,,,,,,,,,,,,,,,,,,,,,0,0,0,0,2,0,2,0,0,15,15,15,,,,,,,,,,,,,,,,,,,,,,,,,,,,,,,,,,,,,,,,,,,,,,,,,,,,,,,,,,,,,,,,,,,,,,,,,,,,700.5024728775024,None,,,,,,,,,,,,,,,,,,,,,,,,,,,,,,,,,,,,,,,,,,,,,,,,,,,,,1000,001,01,2021_Nov_02_1332,task-switching-replication,2021.2.3,59.869108266162705,
3,17,experiment,01,standing,noswitch,congruant,solid,square,yellow,stimuli/solid-rectangle.png,stimuli/yellow-square.png,2,,,,,,,,,,,,,,,,,,,,,,,,,0,0,0,0,2,0,2,0,0,16,16,16,,,,,,,,,,,,,,,,,,,,,,,,,,,,,,,,,,,,,,,,,,,,,,,,,,,,,,,,,,,,,,,,,,,,,,,,,,,,702.5277650356293,None,,,,,,,,,,,,,,,,,,,,,,,,,,,,,,,,,,,,,,700.6987438201904,None,701.6818389892578,None,2,1,0.7220089435577393,701.6818389892578,None,,,,,,,1000,001,01,2021_Nov_02_1332,task-switching-replication,2021.2.3,59.869108266162705,
3,18,experiment,01,standing,noswitch,incongruant,solid,square,blue,stimuli/solid-rectangle.png,stimuli/blue-square.png,1,,,,,,,,,,,,,,,,,,,,,,,,,0,0,0,0,2,0,2,0,0,17,17,17,,,,,,,,,,,,,,,,,,,,,,,,,,,,,,,,,,,,,,,,,,,,,,,,,,,,,,,,,,,,,,,,,,,,,,,,,,,,704.4105880260468,None,,,,,,,,,,,,,,,,,,,,,,,,,,,,,,,,,,,,,,702.7572088241577,None,703.7420959472656,None,1,1,0.5578269958496094,703.7420959472656,None,,,,,,,1000,001,01,2021_Nov_02_1332,task-switching-replication,2021.2.3,59.869108266162705,
3,19,experiment,01,standing,switch,incongruant,dashed,square,yellow,stimuli/dashed-rectangle.png,stimuli/yellow-square.png,2,,,,,,,,,,,,,,,,,,,,,,,,,0,0,0,0,2,0,2,0,0,18,18,18,,,,,,,,,,,,,,,,,,,,,,,,,,,,,,,,,,,,,,,,,,,,,,,,,,,,,,,,,,,,,,,,,,,,,,,,,,,,706.0538959503174,None,,,,,,,,,,,,,,,,,,,,,,,,,,,,,,,,,,,,,,704.6395008563995,None,705.6221578121185,None,2,1,0.33318114280700684,705.6221578121185,None,,,,,,,1000,001,01,2021_Nov_02_1332,task-switching-replication,2021.2.3,59.869108266162705,
3,20,experiment,01,standing,switch,incongruant,solid,triangle,blue,stimuli/solid-rectangle.png,stimuli/blue-triangle.png,1,,,,,,,,,,,,,,,,,,,,,,,,,0,0,0,0,2,0,2,0,0,19,19,19,,,,,,,,,,,,,,,,,,,,,,,,,,,,,,,,,,,,,,,,,,,,,,,,,,,,,,,,,,,,,,,,,,,,,,,,,,,,707.8180868625641,None,,,,,,,,,,,,,,,,,,,,,,,,,,,,,,,,,,,,,,706.2832939624786,None,707.2676148414612,None,1,1,0.4429781436920166,707.2676148414612,None,,,,,,,1000,001,01,2021_Nov_02_1332,task-switching-replication,2021.2.3,59.869108266162705,
3,21,experiment,01,standing,switch,congruant,dashed,triangle,yellow,stimuli/dashed-rectangle.png,stimuli/yellow-triangle.png,1,,,,,,,,,,,,,,,,,,,,,,,,,0,0,0,0,2,0,2,0,0,20,20,20,,,,,0,0,0,0,,,,,,,,,,,,,,,,,,,,,,,,,,,,,,,,,,,,,,,,,,,,,,,,,,,,,,,,,,,,,,,,,,,,,,709.9674264192581,711.0199129581451,710.0000970363617,None,,,,,,,,,,,,,,,,,,,,,,,,,,,,,,,,,,708.0479688644409,None,709.0323100090027,None,2,0,0.8653781414031982,709.0323100090027,None,,,,,,,1000,001,01,2021_Nov_02_1332,task-switching-replication,2021.2.3,59.869108266162705,
3,21,experiment,01,standing,switch,congruant,dashed,triangle,yellow,stimuli/dashed-rectangle.png,stimuli/yellow-triangle.png,1,,,,,,,,,,,,,,,,,,,,,,,,,0,0,0,0,2,0,2,0,0,20,20,20,,,,,,,,,,,,,,,,,,,,,,,,,,,,,,,,,,,,,,,,,,,,,,,,,,,,,,,,,,,,,,,,,,,,,,,,,,,,715.0243589878082,None,,,,,,,,,,,,,,,,,,,,,,,,,,,,,,,,,,,,,,,,,,,,,,,,,,,,,1000,001,01,2021_Nov_02_1332,task-switching-replication,2021.2.3,59.869108266162705,
3,22,experiment,01,standing,noswitch,congruant,dashed,triangle,yellow,stimuli/dashed-rectangle.png,stimuli/yellow-triangle.png,1,,,,,,,,,,,,,,,,,,,,,,,,,0,0,0,0,2,0,2,0,0,21,21,21,,,,,,,,,,,,,,,,,,,,,,,,,,,,,,,,,,,,,,,,,,,,,,,,,,,,,,,,,,,,,,,,,,,,,,,,,,,,717.1688468456268,None,,,,,,,,,,,,,,,,,,,,,,,,,,,,,,,,,,,,,,715.2208700180054,None,716.2054128646851,None,1,1,0.8529200553894043,716.2054128646851,None,,,,,,,1000,001,01,2021_Nov_02_1332,task-switching-replication,2021.2.3,59.869108266162705,
3,23,experiment,01,standing,noswitch,congruant,dashed,triangle,yellow,stimuli/dashed-rectangle.png,stimuli/yellow-triangle.png,1,,,,,,,,,,,,,,,,,,,,,,,,,0,0,0,0,2,0,2,0,0,22,22,22,,,,,,,,,,,,,,,,,,,,,,,,,,,,,,,,,,,,,,,,,,,,,,,,,,,,,,,,,,,,,,,,,,,,,,,,,,,,718.814502954483,None,,,,,,,,,,,,,,,,,,,,,,,,,,,,,,,,,,,,,,717.3976228237152,None,718.3820188045502,None,1,1,0.32869911193847656,718.3820188045502,None,,,,,,,1000,001,01,2021_Nov_02_1332,task-switching-replication,2021.2.3,59.869108266162705,
3,24,experiment,01,standing,noswitch,incongruant,dashed,square,blue,stimuli/dashed-rectangle.png,stimuli/blue-square.png,2,,,,,,,,,,,,,,,,,,,,,,,,,0,0,0,0,2,0,2,0,0,23,23,23,,,,,,,,,,,,,,,,,,,,,,,,,,,,,,,,,,,,,,,,,,,,,,,,,,,,,,,,,,,,,,,,,,,,,,,,,,,,720.4631500244141,None,,,,,,,,,,,,,,,,,,,,,,,,,,,,,,,,,,,,,,719.0434799194336,None,720.0277519226074,None,2,1,0.2820098400115967,720.0277519226074,None,,,,,,,1000,001,01,2021_Nov_02_1332,task-switching-replication,2021.2.3,59.869108266162705,
3,25,experiment,01,standing,switch,incongruant,solid,square,blue,stimuli/solid-rectangle.png,stimuli/blue-square.png,1,,,,,,,,,,,,,,,,,,,,,,,,,0,0,0,0,2,0,2,0,0,24,24,24,,,,,,,,,,,,,,,,,,,,,,,,,,,,,,,,,,,,,,,,,,,,,,,,,,,,,,,,,,,,,,,,,,,,,,,,,,,,722.1685178279877,None,,,,,,,,,,,,,,,,,,,,,,,,,,,,,,,,,,,,,,720.6919958591461,None,721.6758139133453,None,1,1,0.35410189628601074,721.6758139133453,None,,,,,,,1000,001,01,2021_Nov_02_1332,task-switching-replication,2021.2.3,59.869108266162705,
3,26,experiment,01,standing,noswitch,congruant,solid,triangle,blue,stimuli/solid-rectangle.png,stimuli/blue-triangle.png,1,,,,,,,,,,,,,,,,,,,,,,,,,0,0,0,0,2,0,2,0,0,25,25,25,,,,,,,,,,,,,,,,,,,,,,,,,,,,,,,,,,,,,,,,,,,,,,,,,,,,,,,,,,,,,,,,,,,,,,,,,,,,724.0498309135437,None,,,,,,,,,,,,,,,,,,,,,,,,,,,,,,,,,,,,,,722.3976418972015,None,723.3816239833832,None,1,1,0.5290172100067139,723.3816239833832,None,,,,,,,1000,001,01,2021_Nov_02_1332,task-switching-replication,2021.2.3,59.869108266162705,
3,27,experiment,01,standing,switch,incongruant,dashed,square,blue,stimuli/dashed-rectangle.png,stimuli/blue-square.png,2,,,,,,,,,,,,,,,,,,,,,,,,,0,0,0,0,2,0,2,0,0,26,26,26,,,,,,,,,,,,,,,,,,,,,,,,,,,,,,,,,,,,,,,,,,,,,,,,,,,,,,,,,,,,,,,,,,,,,,,,,,,,725.931489944458,None,,,,,,,,,,,,,,,,,,,,,,,,,,,,,,,,,,,,,,724.2783989906311,None,725.2610909938812,None,2,1,0.5318210124969482,725.2610909938812,None,,,,,,,1000,001,01,2021_Nov_02_1332,task-switching-replication,2021.2.3,59.869108266162705,
