blockNum,trialNum,trialType,condition,posture,switchTrialType,congruantTrialType,cueType,shapeType,shapeColor,cueFileName,stimuliFileName,correctAnswer,untimedTrials.thisRepN,untimedTrials.thisTrialN,untimedTrials.thisN,untimedTrials.thisIndex,selectSolid1.thisRepN,selectSolid1.thisTrialN,selectSolid1.thisN,selectSolid1.thisIndex,selectDashed1.thisRepN,selectDashed1.thisTrialN,selectDashed1.thisN,selectDashed1.thisIndex,timedTrials.thisRepN,timedTrials.thisTrialN,timedTrials.thisN,timedTrials.thisIndex,selectSolid2.thisRepN,selectSolid2.thisTrialN,selectSolid2.thisN,selectSolid2.thisIndex,selectDashed2.thisRepN,selectDashed2.thisTrialN,selectDashed2.thisN,selectDashed2.thisIndex,postures.thisRepN,postures.thisTrialN,postures.thisN,postures.thisIndex,blocks.thisRepN,blocks.thisTrialN,blocks.thisN,blocks.thisIndex,trials.thisRepN,trials.thisTrialN,trials.thisN,trials.thisIndex,selectSolid.thisRepN,selectSolid.thisTrialN,selectSolid.thisN,selectSolid.thisIndex,selectDashed.thisRepN,selectDashed.thisTrialN,selectDashed.thisN,selectDashed.thisIndex,text_3.started,text_3.stopped,key_resp_2.keys,key_resp_2.rt,key_resp_2.started,key_resp_2.stopped,image_4.started,image_4.stopped,key_resp_4.keys,key_resp_4.rt,key_resp_4.started,key_resp_4.stopped,image_5.started,image_5.stopped,key_resp_5.keys,key_resp_5.rt,key_resp_5.started,key_resp_5.stopped,image_6.started,image_6.stopped,key_resp_6.keys,key_resp_6.rt,key_resp_6.started,key_resp_6.stopped,image_7.started,image_7.stopped,key_resp_7.keys,key_resp_7.rt,key_resp_7.started,key_resp_7.stopped,image_8.started,image_8.stopped,key_resp_8.keys,key_resp_8.rt,key_resp_8.started,key_resp_8.stopped,image_9.started,image_9.stopped,key_resp_9.keys,key_resp_9.rt,key_resp_9.started,key_resp_9.stopped,image_10.started,image_10.stopped,key_resp_10.keys,key_resp_10.rt,key_resp_10.started,key_resp_10.stopped,image_11.started,image_11.stopped,key_resp_11.keys,key_resp_11.rt,key_resp_11.started,key_resp_11.stopped,cue_untimed_image.started,cue_untimed_image.stopped,stimuli_untimed_image.started,stimuli_untimed_image.stopped,untimed_resp.keys,untimed_resp.corr,untimed_resp.rt,untimed_resp.started,untimed_resp.stopped,text_2.started,text_2.stopped,sound_2.started,sound_2.stopped,image_3.started,image_3.stopped,sound_1.started,sound_1.stopped,image_2.started,image_2.stopped,image_12.started,image_12.stopped,key_resp_12.keys,key_resp_12.rt,key_resp_12.started,key_resp_12.stopped,image_13.started,image_13.stopped,key_resp_13.keys,key_resp_13.rt,key_resp_13.started,key_resp_13.stopped,cue_timed_image.started,cue_timed_image.stopped,stimuli_timed_image.started,stimuli_timed_image.stopped,timed_resp.keys,timed_resp.corr,timed_resp.rt,timed_resp.started,timed_resp.stopped,image.started,image.stopped,key_response.keys,key_response.rt,key_response.started,key_response.stopped,text.started,text.stopped,key_resp.keys,key_resp.rt,key_resp.started,key_resp.stopped,cue_image.started,cue_image.stopped,stimuli_image.started,stimuli_image.stopped,exp_resp.keys,exp_resp.corr,exp_resp.rt,exp_resp.started,exp_resp.stopped,participant,session,condition,date,expName,psychopyVersion,frameRate,
,,,01,,,,,,,,,,,,,,,,,,,,,,,,,,,,,,,,,,,,,,,,,,,,,,,,,,,,,,4.646471977233887,None,2,75.97911381721497,4.646471977233887,None,,,,,,,,,,,,,,,,,,,,,,,,,,,,,,,,,,,,,,,,,,,,,,,,,,,,,,,,,,,,,,,,,,,,,,,,,,,,,,,,,,,,,,,,,,,,,,,,,,,,,,,,,,,,,,1000,001,01,2021_Nov_02_1605,task-switching-replication,2021.2.3,59.995937622479246,
,,,01,,,,,,,,,,,,,,,,,,,,,,,,,,,,,,,,,,,,,,,,,,,,,,,,,,,,,,,,,,,,80.71294498443604,None,2,13.363027811050415,80.71294498443604,None,,,,,,,,,,,,,,,,,,,,,,,,,,,,,,,,,,,,,,,,,,,,,,,,,,,,,,,,,,,,,,,,,,,,,,,,,,,,,,,,,,,,,,,,,,,,,,,,,,,,,,,,1000,001,01,2021_Nov_02_1605,task-switching-replication,2021.2.3,59.995937622479246,
,,,01,,,,,,,,,,,,,,,,,,,,,,,,,,,,,,,,,,,,,,,,,,,,,,,,,,,,,,,,,,,,,,,,,,94.19139814376831,None,1,7.260574817657471,94.19139814376831,None,,,,,,,,,,,,,,,,,,,,,,,,,,,,,,,,,,,,,,,,,,,,,,,,,,,,,,,,,,,,,,,,,,,,,,,,,,,,,,,,,,,,,,,,,,,,,,,,,,1000,001,01,2021_Nov_02_1605,task-switching-replication,2021.2.3,59.995937622479246,
,,,01,,,,,,,,,,,,,,,,,,,,,,,,,,,,,,,,,,,,,,,,,,,,,,,,,,,,,,,,,,,,,,,,,,,,,,,,101.53339314460754,None,2,7.13513708114624,101.53339314460754,None,,,,,,,,,,,,,,,,,,,,,,,,,,,,,,,,,,,,,,,,,,,,,,,,,,,,,,,,,,,,,,,,,,,,,,,,,,,,,,,,,,,,,,,,,,,,1000,001,01,2021_Nov_02_1605,task-switching-replication,2021.2.3,59.995937622479246,
,,,01,,,,,,,,,,,,,,,,,,,,,,,,,,,,,,,,,,,,,,,,,,,,,,,,,,,,,,,,,,,,,,,,,,,,,,,,,,,,,,108.75489401817322,None,2,1.997046947479248,108.75489401817322,None,,,,,,,,,,,,,,,,,,,,,,,,,,,,,,,,,,,,,,,,,,,,,,,,,,,,,,,,,,,,,,,,,,,,,,,,,,,,,,,,,,,,,,1000,001,01,2021_Nov_02_1605,task-switching-replication,2021.2.3,59.995937622479246,
,,,01,,,,,,,,,,,,,,,,,,,,,,,,,,,,,,,,,,,,,,,,,,,,,,,,,,,,,,,,,,,,,,,,,,,,,,,,,,,,,,,,,,,,110.87241506576538,None,1,5.70458197593689,110.87241506576538,None,,,,,,,,,,,,,,,,,,,,,,,,,,,,,,,,,,,,,,,,,,,,,,,,,,,,,,,,,,,,,,,,,,,,,,,,,,,,,,,,1000,001,01,2021_Nov_02_1605,task-switching-replication,2021.2.3,59.995937622479246,
,,,01,,,,,,,,,,,,,,,,,,,,,,,,,,,,,,,,,,,,,,,,,,,,,,,,,,,,,,,,,,,,,,,,,,,,,,,,,,,,,,,,,,,,,,,,,,116.69816899299622,None,2,2.4503421783447266,116.69816899299622,None,,,,,,,,,,,,,,,,,,,,,,,,,,,,,,,,,,,,,,,,,,,,,,,,,,,,,,,,,,,,,,,,,,,,,,,,,,1000,001,01,2021_Nov_02_1605,task-switching-replication,2021.2.3,59.995937622479246,
,,,01,,,,,,,,,,,,,,,,,,,,,,,,,,,,,,,,,,,,,,,,,,,,,,,,,,,,,,,,,,,,,,,,,,,,,,,,,,,,,,,,,,,,,,,,,,,,,,,,119.24093103408813,None,2,1.1820330619812012,119.24093103408813,None,,,,,,,,,,,,,,,,,,,,,,,,,,,,,,,,,,,,,,,,,,,,,,,,,,,,,,,,,,,,,,,,,,,,1000,001,01,2021_Nov_02_1605,task-switching-replication,2021.2.3,59.995937622479246,
,,,01,,,,,,,,,,,,,,,,,,,,,,,,,,,,,,,,,,,,,,,,,,,,,,,,,,,,,,,,,,,,,,,,,,,,,,,,,,,,,,,,,,,,,,,,,,,,,,,,,,,,,,120.507395029068,None,1,12.574748992919922,120.507395029068,None,,,,,,,,,,,,,,,,,,,,,,,,,,,,,,,,,,,,,,,,,,,,,,,,,,,,,,,,,,,,,,1000,001,01,2021_Nov_02_1605,task-switching-replication,2021.2.3,59.995937622479246,
1,1,untimed,01,standing,buffer,buffer,solid,square,blue,stimuli/solid-rectangle.png,stimuli/blue-square.png,1,0,0,0,0,,,,,,,,,,,,,,,,,,,,,,,,,,,,,,,,,,,,,,,,,,,,,,,,,,,,,,,,,,,,,,,,,,,,,,,,,,,,,,,,,,,,,,,,,,,,,,,133.22946619987488,None,134.2299029827118,None,1,1,1.4049630165100098,134.2299029827118,None,135.74190306663513,None,,,,,,,,,,,,,,,,,,,,,,,,,,,,,,,,,,,,,,,,,,,,,,,,,,,1000,001,01,2021_Nov_02_1605,task-switching-replication,2021.2.3,59.995937622479246,
1,2,untimed,01,standing,switch,incongruant,dashed,square,blue,stimuli/dashed-rectangle.png,stimuli/blue-square.png,2,0,1,1,1,,,,,0,0,0,0,,,,,,,,,,,,,,,,,,,,,,,,,,,,,,,,,,,,,,,,,,,,,,,,,,,,,,,,,,,,,,,,,,,,,,,,,,,,,,,,,,,,,,,135.9718132019043,None,136.97227215766907,None,1,0,3.3956830501556396,136.97227215766907,None,,,140.4865825176239,141.50817108154297,140.520250082016,None,,,,,,,,,,,,,,,,,,,,,,,,,,,,,,,,,,,,,,,,,,,,,,,1000,001,01,2021_Nov_02_1605,task-switching-replication,2021.2.3,59.995937622479246,
1,2,untimed,01,standing,switch,incongruant,dashed,square,blue,stimuli/dashed-rectangle.png,stimuli/blue-square.png,2,0,1,1,1,,,,,,,,,,,,,,,,,,,,,,,,,,,,,,,,,,,,,,,,,,,,,,,,,,,,,,,,,,,,,,,,,,,,,,,,,,,,,,,,,,,,,,,,,,,,,,,,,,,,,,,,145.52889704704285,None,,,,,,,,,,,,,,,,,,,,,,,,,,,,,,,,,,,,,,,,,,,,,,,,,,,1000,001,01,2021_Nov_02_1605,task-switching-replication,2021.2.3,59.995937622479246,
1,3,untimed,01,standing,noswitch,congruant,dashed,square,yellow,stimuli/dashed-rectangle.png,stimuli/yellow-square.png,2,0,2,2,2,,,,,,,,,,,,,,,,,,,,,,,,,,,,,,,,,,,,,,,,,,,,,,,,,,,,,,,,,,,,,,,,,,,,,,,,,,,,,,,,,,,,,,,,,,,,,,,145.72593998908997,None,146.72596216201782,None,2,1,4.941089868545532,146.72596216201782,None,151.81620001792908,None,,,,,,,,,,,,,,,,,,,,,,,,,,,,,,,,,,,,,,,,,,,,,,,,,,,1000,001,01,2021_Nov_02_1605,task-switching-replication,2021.2.3,59.995937622479246,
1,4,untimed,01,standing,noswitch,congruant,dashed,square,yellow,stimuli/dashed-rectangle.png,stimuli/yellow-square.png,2,0,3,3,3,,,,,,,,,,,,,,,,,,,,,,,,,,,,,,,,,,,,,,,,,,,,,,,,,,,,,,,,,,,,,,,,,,,,,,,,,,,,,,,,,,,,,,,,,,,,,,,152.04604315757751,None,153.04536819458008,None,2,1,3.960712194442749,153.04536819458008,None,157.12653398513794,None,,,,,,,,,,,,,,,,,,,,,,,,,,,,,,,,,,,,,,,,,,,,,,,,,,,1000,001,01,2021_Nov_02_1605,task-switching-replication,2021.2.3,59.995937622479246,
1,5,untimed,01,standing,switch,incongruant,solid,square,blue,stimuli/solid-rectangle.png,stimuli/blue-square.png,1,0,4,4,4,,,,,,,,,,,,,,,,,,,,,,,,,,,,,,,,,,,,,,,,,,,,,,,,,,,,,,,,,,,,,,,,,,,,,,,,,,,,,,,,,,,,,,,,,,,,,,,157.35563206672668,None,158.3545160293579,None,1,1,5.562330961227417,158.3545160293579,None,164.0510220527649,None,,,,,,,,,,,,,,,,,,,,,,,,,,,,,,,,,,,,,,,,,,,,,,,,,,,1000,001,01,2021_Nov_02_1605,task-switching-replication,2021.2.3,59.995937622479246,
1,6,untimed,01,standing,switch,incongruant,dashed,square,blue,stimuli/dashed-rectangle.png,stimuli/blue-square.png,2,0,5,5,5,,,,,,,,,,,,,,,,,,,,,,,,,,,,,,,,,,,,,,,,,,,,,,,,,,,,,,,,,,,,,,,,,,,,,,,,,,,,,,,,,,,,,,,,,,,,,,,164.28049612045288,None,165.28061199188232,None,2,1,2.5026910305023193,165.28061199188232,None,167.9276521205902,None,,,,,,,,,,,,,,,,,,,,,,,,,,,,,,,,,,,,,,,,,,,,,,,,,,,1000,001,01,2021_Nov_02_1605,task-switching-replication,2021.2.3,59.995937622479246,
1,7,untimed,01,standing,noswitch,incongruant,dashed,triangle,blue,stimuli/dashed-rectangle.png,stimuli/blue-triangle.png,1,0,6,6,6,,,,,,,,,,,,,,,,,,,,,,,,,,,,,,,,,,,,,,,,,,,,,,,,,,,,,,,,,,,,,,,,,,,,,,,,,,,,,,,,,,,,,,,,,,,,,,,168.1574511528015,None,169.157958984375,None,1,1,2.565512180328369,169.157958984375,None,171.8673391342163,None,,,,,,,,,,,,,,,,,,,,,,,,,,,,,,,,,,,,,,,,,,,,,,,,,,,1000,001,01,2021_Nov_02_1605,task-switching-replication,2021.2.3,59.995937622479246,
1,8,untimed,01,standing,noswitch,congruant,dashed,triangle,yellow,stimuli/dashed-rectangle.png,stimuli/yellow-triangle.png,1,0,7,7,7,,,,,,,,,,,,,,,,,,,,,,,,,,,,,,,,,,,,,,,,,,,,,,,,,,,,,,,,,,,,,,,,,,,,,,,,,,,,,,,,,,,,,,,,,,,,,,,172.09667897224426,None,173.09495401382446,None,1,1,3.4551119804382324,173.09495401382446,None,176.69770503044128,None,,,,,,,,,,,,,,,,,,,,,,,,,,,,,,,,,,,,,,,,,,,,,,,,,,,1000,001,01,2021_Nov_02_1605,task-switching-replication,2021.2.3,59.995937622479246,
1,9,untimed,01,standing,switch,congruant,solid,triangle,blue,stimuli/solid-rectangle.png,stimuli/blue-triangle.png,1,0,8,8,8,,,,,,,,,,,,,,,,,,,,,,,,,,,,,,,,,,,,,,,,,,,,,,,,,,,,,,,,,,,,,,,,,,,,,,,,,,,,,,,,,,,,,,,,,,,,,,,176.9273600578308,None,177.9273509979248,None,1,1,2.692664861679077,177.9273509979248,None,180.75325512886047,None,,,,,,,,,,,,,,,,,,,,,,,,,,,,,,,,,,,,,,,,,,,,,,,,,,,1000,001,01,2021_Nov_02_1605,task-switching-replication,2021.2.3,59.995937622479246,
1,10,untimed,01,standing,switch,congruant,dashed,triangle,yellow,stimuli/dashed-rectangle.png,stimuli/yellow-triangle.png,1,0,9,9,9,,,,,0,0,0,0,,,,,,,,,,,,,,,,,,,,,,,,,,,,,,,,,,,,,,,,,,,,,,,,,,,,,,,,,,,,,,,,,,,,,,,,,,,,,,,,,,,,,,,180.98241305351257,None,181.98191905021667,None,2,0,4.888605117797852,181.98191905021667,None,,,186.9921736717224,188.0437309741974,187.0241940021515,None,,,,,,,,,,,,,,,,,,,,,,,,,,,,,,,,,,,,,,,,,,,,,,,1000,001,01,2021_Nov_02_1605,task-switching-replication,2021.2.3,59.995937622479246,
1,10,untimed,01,standing,switch,congruant,dashed,triangle,yellow,stimuli/dashed-rectangle.png,stimuli/yellow-triangle.png,1,0,9,9,9,,,,,,,,,,,,,,,,,,,,,,,,,,,,,,,,,,,,,,,,,,,,,,,,,,,,,,,,,,,,,,,,,,,,,,,,,,,,,,,,,,,,,,,,,,,,,,,,,,,,,,,,192.04517316818237,None,,,,,,,,,,,,,,,,,,,,,,,,,,,,,,,,,,,,,,,,,,,,,,,,,,,1000,001,01,2021_Nov_02_1605,task-switching-replication,2021.2.3,59.995937622479246,
1,11,untimed,01,standing,switch,incongruant,solid,square,yellow,stimuli/solid-rectangle.png,stimuli/yellow-square.png,2,0,10,10,10,,,,,,,,,,,,,,,,,,,,,,,,,,,,,,,,,,,,,,,,,,,,,,,,,,,,,,,,,,,,,,,,,,,,,,,,,,,,,,,,,,,,,,,,,,,,,,,192.24206399917603,None,193.24176502227783,None,2,1,2.0674688816070557,193.24176502227783,None,195.4093701839447,None,,,,,,,,,,,,,,,,,,,,,,,,,,,,,,,,,,,,,,,,,,,,,,,,,,,1000,001,01,2021_Nov_02_1605,task-switching-replication,2021.2.3,59.995937622479246,
1,12,untimed,01,standing,noswitch,congruant,solid,triangle,yellow,stimuli/solid-rectangle.png,stimuli/yellow-triangle.png,2,0,11,11,11,0,0,0,0,,,,,,,,,,,,,,,,,,,,,,,,,,,,,,,,,,,,,,,,,,,,,,,,,,,,,,,,,,,,,,,,,,,,,,,,,,,,,,,,,,,,,,,,,,,195.63920617103577,None,196.6395161151886,None,1,0,1.6838278770446777,196.6395161151886,None,,,,,,,198.4260015487671,199.47694206237793,198.45779418945312,None,,,,,,,,,,,,,,,,,,,,,,,,,,,,,,,,,,,,,,,,,,,1000,001,01,2021_Nov_02_1605,task-switching-replication,2021.2.3,59.995937622479246,
1,12,untimed,01,standing,noswitch,congruant,solid,triangle,yellow,stimuli/solid-rectangle.png,stimuli/yellow-triangle.png,2,0,11,11,11,,,,,,,,,,,,,,,,,,,,,,,,,,,,,,,,,,,,,,,,,,,,,,,,,,,,,,,,,,,,,,,,,,,,,,,,,,,,,,,,,,,,,,,,,,,,,,,,,,,,,,,,203.48673009872437,None,,,,,,,,,,,,,,,,,,,,,,,,,,,,,,,,,,,,,,,,,,,,,,,,,,,1000,001,01,2021_Nov_02_1605,task-switching-replication,2021.2.3,59.995937622479246,
,,,01,,,,,,,,,,,,,,,,,,,,,,,,,,,,,,,,,,,,,,,,,,,,,,,,,,,,,,,,,,,,,,,,,,,,,,,,,,,,,,,,,,,,,,,,,,,,,,,,,,,,,,,,,,,,,,,,,,,,,,,,,,,,,,,203.68368315696716,None,2,4.66878080368042,203.68368315696716,None,,,,,,,,,,,,,,,,,,,,,,,,,,,,,,,,,,,,,1000,001,01,2021_Nov_02_1605,task-switching-replication,2021.2.3,59.995937622479246,
,,,01,,,,,,,,,,,,,,,,,,,,,,,,,,,,,,,,,,,,,,,,,,,,,,,,,,,,,,,,,,,,,,,,,,,,,,,,,,,,,,,,,,,,,,,,,,,,,,,,,,,,,,,,,,,,,,,,,,,,,,,,,,,,,,,,,,,,,208.47375297546387,None,2,6.973461866378784,208.47375297546387,None,,,,,,,,,,,,,,,,,,,,,,,,,,,,,,,1000,001,01,2021_Nov_02_1605,task-switching-replication,2021.2.3,59.995937622479246,
1,1,timed,01,standing,buffer,buffer,dashed,triangle,blue,stimuli/dashed-rectangle.png,stimuli/blue-triangle.png,1,,,,,,,,,,,,,0,0,0,0,,,,,,,,,,,,,,,,,,,,,,,,,,,,,,,,,,,,,,,,,,,,,,,,,,,,,,,,,,,,,,,,,,,,,,,,,,,,,,,,,,,,,,,,,,,,218.03045511245728,None,,,,,,,,,,,,,,,,,,,,,215.60977506637573,None,216.59375619888306,None,1,1,1.3237481117248535,216.59375619888306,None,,,,,,,,,,,,,,,,,,,,,,1000,001,01,2021_Nov_02_1605,task-switching-replication,2021.2.3,59.995937622479246,
1,2,timed,01,standing,switch,congruant,solid,square,blue,stimuli/solid-rectangle.png,stimuli/blue-square.png,1,,,,,,,,,,,,,0,1,1,1,0,0,0,0,,,,,,,,,,,,,,,,,,,,,,,,,,,,,,,,,,,,,,,,,,,,,,,,,,,,,,,,,,,,,,,,,,,,,,,,,,,,,,,,,,,,,,,,,,,,,,220.41933965682983,221.47140407562256,220.4510521888733,None,,,,,,,,,,,,,218.25998902320862,None,219.245099067688,None,2,0,1.0674419403076172,219.245099067688,None,,,,,,,,,,,,,,,,,,,,,,1000,001,01,2021_Nov_02_1605,task-switching-replication,2021.2.3,59.995937622479246,
1,2,timed,01,standing,switch,congruant,solid,square,blue,stimuli/solid-rectangle.png,stimuli/blue-square.png,1,,,,,,,,,,,,,0,1,1,1,,,,,,,,,,,,,,,,,,,,,,,,,,,,,,,,,,,,,,,,,,,,,,,,,,,,,,,,,,,,,,,,,,,,,,,,,,,,,,,,,,,,,,,,,,,,225.47813415527344,None,,,,,,,,,,,,,,,,,,,,,,,,,,,,,,,,,,,,,,,,,,,,,,,,,,,1000,001,01,2021_Nov_02_1605,task-switching-replication,2021.2.3,59.995937622479246,
1,3,timed,01,standing,noswitch,incongruant,solid,square,yellow,stimuli/solid-rectangle.png,stimuli/yellow-square.png,2,,,,,,,,,,,,,0,2,2,2,0,0,0,0,,,,,,,,,,,,,,,,,,,,,,,,,,,,,,,,,,,,,,,,,,,,,,,,,,,,,,,,,,,,,,,,,,,,,,,,,,,,,,,,,,,,,,,,,,,,,,228.1938278198242,229.24479007720947,228.22480416297913,None,,,,,,,,,,,,,225.67460918426514,None,226.65861105918884,None,None,0,,226.65861105918884,None,,,,,,,,,,,,,,,,,,,,,,1000,001,01,2021_Nov_02_1605,task-switching-replication,2021.2.3,59.995937622479246,
1,3,timed,01,standing,noswitch,incongruant,solid,square,yellow,stimuli/solid-rectangle.png,stimuli/yellow-square.png,2,,,,,,,,,,,,,0,2,2,2,,,,,,,,,,,,,,,,,,,,,,,,,,,,,,,,,,,,,,,,,,,,,,,,,,,,,,,,,,,,,,,,,,,,,,,,,,,,,,,,,,,,,,,,,,,,233.24451518058777,None,,,,,,,,,,,,,,,,,,,,,,,,,,,,,,,,,,,,,,,,,,,,,,,,,,,1000,001,01,2021_Nov_02_1605,task-switching-replication,2021.2.3,59.995937622479246,
1,4,timed,01,standing,switch,incongruant,dashed,triangle,yellow,stimuli/dashed-rectangle.png,stimuli/yellow-triangle.png,1,,,,,,,,,,,,,0,3,3,3,,,,,,,,,,,,,,,,,,,,,,,,,,,,,,,,,,,,,,,,,,,,,,,,,,,,,,,,,,,,,,,,,,,,,,,,,,,,,,,,,,,,,,,,,,,,235.86181616783142,None,,,,,,,,,,,,,,,,,,,,,233.44074201583862,None,234.42532205581665,None,1,1,1.2829880714416504,234.42532205581665,None,,,,,,,,,,,,,,,,,,,,,,1000,001,01,2021_Nov_02_1605,task-switching-replication,2021.2.3,59.995937622479246,
1,5,timed,01,standing,switch,incongruant,solid,square,yellow,stimuli/solid-rectangle.png,stimuli/yellow-square.png,2,,,,,,,,,,,,,0,4,4,4,,,,,,,,,,,,,,,,,,,,,,,,,,,,,,,,,,,,,,,,,,,,,,,,,,,,,,,,,,,,,,,,,,,,,,,,,,,,,,,,,,,,,,,,,,,,238.16115713119507,None,,,,,,,,,,,,,,,,,,,,,236.09097504615784,None,237.07549905776978,None,2,1,0.942072868347168,237.07549905776978,None,,,,,,,,,,,,,,,,,,,,,,1000,001,01,2021_Nov_02_1605,task-switching-replication,2021.2.3,59.995937622479246,
1,6,timed,01,standing,switch,congruant,dashed,square,blue,stimuli/dashed-rectangle.png,stimuli/blue-square.png,2,,,,,,,,,,,,,0,5,5,5,,,,,0,0,0,0,,,,,,,,,,,,,,,,,,,,,,,,,,,,,,,,,,,,,,,,,,,,,,,,,,,,,,,,,,,,,,,,,,,,,,,,,,,,,,,,,,,,,,240.4295835494995,241.4719831943512,240.46177697181702,None,,,,,,,,,,,,,,,,,238.39029908180237,None,239.37460207939148,None,1,0,0.9336791038513184,239.37460207939148,None,,,,,,,,,,,,,,,,,,,,,,1000,001,01,2021_Nov_02_1605,task-switching-replication,2021.2.3,59.995937622479246,
1,6,timed,01,standing,switch,congruant,dashed,square,blue,stimuli/dashed-rectangle.png,stimuli/blue-square.png,2,,,,,,,,,,,,,0,5,5,5,,,,,,,,,,,,,,,,,,,,,,,,,,,,,,,,,,,,,,,,,,,,,,,,,,,,,,,,,,,,,,,,,,,,,,,,,,,,,,,,,,,,,,,,,,,,245.47423315048218,None,,,,,,,,,,,,,,,,,,,,,,,,,,,,,,,,,,,,,,,,,,,,,,,,,,,1000,001,01,2021_Nov_02_1605,task-switching-replication,2021.2.3,59.995937622479246,
1,7,timed,01,standing,switch,incongruant,solid,triangle,blue,stimuli/solid-rectangle.png,stimuli/blue-triangle.png,1,,,,,,,,,,,,,0,6,6,6,0,0,0,0,,,,,,,,,,,,,,,,,,,,,,,,,,,,,,,,,,,,,,,,,,,,,,,,,,,,,,,,,,,,,,,,,,,,,,,,,,,,,,,,,,,,,,,,,,,,,,247.94533157348633,248.99583101272583,247.97720098495483,None,,,,,,,,,,,,,245.6710331439972,None,246.65542912483215,None,2,0,1.1740539073944092,246.65542912483215,None,,,,,,,,,,,,,,,,,,,,,,1000,001,01,2021_Nov_02_1605,task-switching-replication,2021.2.3,59.995937622479246,
1,7,timed,01,standing,switch,incongruant,solid,triangle,blue,stimuli/solid-rectangle.png,stimuli/blue-triangle.png,1,,,,,,,,,,,,,0,6,6,6,,,,,,,,,,,,,,,,,,,,,,,,,,,,,,,,,,,,,,,,,,,,,,,,,,,,,,,,,,,,,,,,,,,,,,,,,,,,,,,,,,,,,,,,,,,,252.9986321926117,None,,,,,,,,,,,,,,,,,,,,,,,,,,,,,,,,,,,,,,,,,,,,,,,,,,,1000,001,01,2021_Nov_02_1605,task-switching-replication,2021.2.3,59.995937622479246,
1,8,timed,01,standing,noswitch,congruant,solid,triangle,blue,stimuli/solid-rectangle.png,stimuli/blue-triangle.png,1,,,,,,,,,,,,,0,7,7,7,0,0,0,0,,,,,,,,,,,,,,,,,,,,,,,,,,,,,,,,,,,,,,,,,,,,,,,,,,,,,,,,,,,,,,,,,,,,,,,,,,,,,,,,,,,,,,,,,,,,,,255.292165517807,256.34217500686646,255.32486414909363,None,,,,,,,,,,,,,253.194885969162,None,254.17891716957092,None,2,0,1.0213379859924316,254.17891716957092,None,,,,,,,,,,,,,,,,,,,,,,1000,001,01,2021_Nov_02_1605,task-switching-replication,2021.2.3,59.995937622479246,
1,8,timed,01,standing,noswitch,congruant,solid,triangle,blue,stimuli/solid-rectangle.png,stimuli/blue-triangle.png,1,,,,,,,,,,,,,0,7,7,7,,,,,,,,,,,,,,,,,,,,,,,,,,,,,,,,,,,,,,,,,,,,,,,,,,,,,,,,,,,,,,,,,,,,,,,,,,,,,,,,,,,,,,,,,,,,260.34513902664185,None,,,,,,,,,,,,,,,,,,,,,,,,,,,,,,,,,,,,,,,,,,,,,,,,,,,1000,001,01,2021_Nov_02_1605,task-switching-replication,2021.2.3,59.995937622479246,
1,9,timed,01,standing,switch,congruant,dashed,triangle,yellow,stimuli/dashed-rectangle.png,stimuli/yellow-triangle.png,1,,,,,,,,,,,,,0,8,8,8,,,,,,,,,,,,,,,,,,,,,,,,,,,,,,,,,,,,,,,,,,,,,,,,,,,,,,,,,,,,,,,,,,,,,,,,,,,,,,,,,,,,,,,,,,,,262.0758111476898,None,,,,,,,,,,,,,,,,,,,,,260.5415151119232,None,261.5257329940796,None,1,1,0.44457101821899414,261.5257329940796,None,,,,,,,,,,,,,,,,,,,,,,1000,001,01,2021_Nov_02_1605,task-switching-replication,2021.2.3,59.995937622479246,
1,10,timed,01,standing,noswitch,incongruant,dashed,square,yellow,stimuli/dashed-rectangle.png,stimuli/yellow-square.png,2,,,,,,,,,,,,,0,9,9,9,,,,,0,0,0,0,,,,,,,,,,,,,,,,,,,,,,,,,,,,,,,,,,,,,,,,,,,,,,,,,,,,,,,,,,,,,,,,,,,,,,,,,,,,,,,,,,,,,,264.8226038932801,265.87288308143616,264.8540201187134,None,,,,,,,,,,,,,,,,,262.30467200279236,None,263.28895020484924,None,None,0,,263.28895020484924,None,,,,,,,,,,,,,,,,,,,,,,1000,001,01,2021_Nov_02_1605,task-switching-replication,2021.2.3,59.995937622479246,
1,10,timed,01,standing,noswitch,incongruant,dashed,square,yellow,stimuli/dashed-rectangle.png,stimuli/yellow-square.png,2,,,,,,,,,,,,,0,9,9,9,,,,,,,,,,,,,,,,,,,,,,,,,,,,,,,,,,,,,,,,,,,,,,,,,,,,,,,,,,,,,,,,,,,,,,,,,,,,,,,,,,,,,,,,,,,,269.87663197517395,None,,,,,,,,,,,,,,,,,,,,,,,,,,,,,,,,,,,,,,,,,,,,,,,,,,,1000,001,01,2021_Nov_02_1605,task-switching-replication,2021.2.3,59.995937622479246,
1,11,timed,01,standing,noswitch,congruant,dashed,square,blue,stimuli/dashed-rectangle.png,stimuli/blue-square.png,2,,,,,,,,,,,,,0,10,10,10,,,,,0,0,0,0,,,,,,,,,,,,,,,,,,,,,,,,,,,,,,,,,,,,,,,,,,,,,,,,,,,,,,,,,,,,,,,,,,,,,,,,,,,,,,,,,,,,,,272.59227700233464,273.6440050601959,272.6236960887909,None,,,,,,,,,,,,,,,,,270.0733411312103,None,271.05766010284424,None,None,0,,271.05766010284424,None,,,,,,,,,,,,,,,,,,,,,,1000,001,01,2021_Nov_02_1605,task-switching-replication,2021.2.3,59.995937622479246,
1,11,timed,01,standing,noswitch,congruant,dashed,square,blue,stimuli/dashed-rectangle.png,stimuli/blue-square.png,2,,,,,,,,,,,,,0,10,10,10,,,,,,,,,,,,,,,,,,,,,,,,,,,,,,,,,,,,,,,,,,,,,,,,,,,,,,,,,,,,,,,,,,,,,,,,,,,,,,,,,,,,,,,,,,,,277.6454041004181,None,,,,,,,,,,,,,,,,,,,,,,,,,,,,,,,,,,,,,,,,,,,,,,,,,,,1000,001,01,2021_Nov_02_1605,task-switching-replication,2021.2.3,59.995937622479246,
1,12,timed,01,standing,noswitch,congruant,dashed,square,yellow,stimuli/dashed-rectangle.png,stimuli/yellow-square.png,2,,,,,,,,,,,,,0,11,11,11,,,,,0,0,0,0,,,,,,,,,,,,,,,,,,,,,,,,,,,,,,,,,,,,,,,,,,,,,,,,,,,,,,,,,,,,,,,,,,,,,,,,,,,,,,,,,,,,,,279.88402247428894,280.9347460269928,279.91612219810486,None,,,,,,,,,,,,,,,,,277.8420581817627,None,278.8270220756531,None,1,0,0.9461419582366943,278.8270220756531,None,,,,,,,,,,,,,,,,,,,,,,1000,001,01,2021_Nov_02_1605,task-switching-replication,2021.2.3,59.995937622479246,
1,12,timed,01,standing,noswitch,congruant,dashed,square,yellow,stimuli/dashed-rectangle.png,stimuli/yellow-square.png,2,,,,,,,,,,,,,0,11,11,11,,,,,,,,,,,,,,,,,,,,,,,,,,,,,,,,,,,,,,,,,,,,,,,,,,,,,,,,,,,,,,,,,,,,,,,,,,,,,,,,,,,,,,,,,,,,284.9374370574951,None,,,,,,,,,,,,,,,,,,,,,,,,,,,,,,,,,,,,,,,,,,,,,,,,,,,1000,001,01,2021_Nov_02_1605,task-switching-replication,2021.2.3,59.995937622479246,
1,13,timed,01,standing,switch,congruant,solid,square,yellow,stimuli/solid-rectangle.png,stimuli/yellow-square.png,2,,,,,,,,,,,,,0,12,12,12,,,,,,,,,,,,,,,,,,,,,,,,,,,,,,,,,,,,,,,,,,,,,,,,,,,,,,,,,,,,,,,,,,,,,,,,,,,,,,,,,,,,,,,,,,,,287.14319705963135,None,,,,,,,,,,,,,,,,,,,,,285.1350259780884,None,286.1197690963745,None,2,1,0.9247479438781738,286.1197690963745,None,,,,,,,,,,,,,,,,,,,,,,1000,001,01,2021_Nov_02_1605,task-switching-replication,2021.2.3,59.995937622479246,
1,14,timed,01,standing,switch,incongruant,dashed,triangle,blue,stimuli/dashed-rectangle.png,stimuli/blue-triangle.png,1,,,,,,,,,,,,,0,13,13,13,,,,,,,,,,,,,,,,,,,,,,,,,,,,,,,,,,,,,,,,,,,,,,,,,,,,,,,,,,,,,,,,,,,,,,,,,,,,,,,,,,,,,,,,,,,,289.67714619636536,None,,,,,,,,,,,,,,,,,,,,,287.3719780445099,None,288.3557291030884,None,1,1,1.18772292137146,288.3557291030884,None,,,,,,,,,,,,,,,,,,,,,,1000,001,01,2021_Nov_02_1605,task-switching-replication,2021.2.3,59.995937622479246,
1,15,timed,01,standing,noswitch,incongruant,dashed,square,yellow,stimuli/dashed-rectangle.png,stimuli/yellow-square.png,2,,,,,,,,,,,,,0,14,14,14,,,,,,,,,,,,,,,,,,,,,,,,,,,,,,,,,,,,,,,,,,,,,,,,,,,,,,,,,,,,,,,,,,,,,,,,,,,,,,,,,,,,,,,,,,,,291.8543930053711,None,,,,,,,,,,,,,,,,,,,,,289.90589809417725,None,290.89178919792175,None,2,1,0.838482141494751,290.89178919792175,None,,,,,,,,,,,,,,,,,,,,,,1000,001,01,2021_Nov_02_1605,task-switching-replication,2021.2.3,59.995937622479246,
1,16,timed,01,standing,switch,congruant,solid,triangle,yellow,stimuli/solid-rectangle.png,stimuli/yellow-triangle.png,2,,,,,,,,,,,,,0,15,15,15,0,0,0,0,,,,,,,,,,,,,,,,,,,,,,,,,,,,,,,,,,,,,,,,,,,,,,,,,,,,,,,,,,,,,,,,,,,,,,,,,,,,,,,,,,,,,,,,,,,,,,294.1235716342926,295.1741909980774,294.15574407577515,None,,,,,,,,,,,,,292.0831460952759,None,293.0706481933594,None,1,0,0.9784388542175293,293.0706481933594,None,,,,,,,,,,,,,,,,,,,,,,1000,001,01,2021_Nov_02_1605,task-switching-replication,2021.2.3,59.995937622479246,
1,16,timed,01,standing,switch,congruant,solid,triangle,yellow,stimuli/solid-rectangle.png,stimuli/yellow-triangle.png,2,,,,,,,,,,,,,0,15,15,15,,,,,,,,,,,,,,,,,,,,,,,,,,,,,,,,,,,,,,,,,,,,,,,,,,,,,,,,,,,,,,,,,,,,,,,,,,,,,,,,,,,,,,,,,,,,299.1789309978485,None,,,,,,,,,,,,,,,,,,,,,,,,,,,,,,,,,,,,,,,,,,,,,,,,,,,1000,001,01,2021_Nov_02_1605,task-switching-replication,2021.2.3,59.995937622479246,
1,17,timed,01,standing,noswitch,incongruant,solid,square,blue,stimuli/solid-rectangle.png,stimuli/blue-square.png,1,,,,,,,,,,,,,0,16,16,16,,,,,,,,,,,,,,,,,,,,,,,,,,,,,,,,,,,,,,,,,,,,,,,,,,,,,,,,,,,,,,,,,,,,,,,,,,,,,,,,,,,,,,,,,,,,301.14680099487305,None,,,,,,,,,,,,,,,,,,,,,299.3754811286926,None,300.35989117622375,None,1,1,0.6715970039367676,300.35989117622375,None,,,,,,,,,,,,,,,,,,,,,,1000,001,01,2021_Nov_02_1605,task-switching-replication,2021.2.3,59.995937622479246,
1,18,timed,01,standing,switch,congruant,dashed,triangle,yellow,stimuli/dashed-rectangle.png,stimuli/yellow-triangle.png,1,,,,,,,,,,,,,0,17,17,17,,,,,,,,,,,,,,,,,,,,,,,,,,,,,,,,,,,,,,,,,,,,,,,,,,,,,,,,,,,,,,,,,,,,,,,,,,,,,,,,,,,,,,,,,,,,303.7955939769745,None,,,,,,,,,,,,,,,,,,,,,301.37570810317993,None,302.3596820831299,None,1,1,1.2845330238342285,302.3596820831299,None,,,,,,,,,,,,,,,,,,,,,,1000,001,01,2021_Nov_02_1605,task-switching-replication,2021.2.3,59.995937622479246,
1,19,timed,01,standing,noswitch,congruant,dashed,triangle,blue,stimuli/dashed-rectangle.png,stimuli/blue-triangle.png,1,,,,,,,,,,,,,0,18,18,18,,,,,,,,,,,,,,,,,,,,,,,,,,,,,,,,,,,,,,,,,,,,,,,,,,,,,,,,,,,,,,,,,,,,,,,,,,,,,,,,,,,,,,,,,,,,306.44576501846313,None,,,,,,,,,,,,,,,,,,,,,304.02463006973267,None,305.00847816467285,None,1,1,1.3338279724121094,305.00847816467285,None,,,,,,,,,,,,,,,,,,,,,,1000,001,01,2021_Nov_02_1605,task-switching-replication,2021.2.3,59.995937622479246,
1,20,timed,01,standing,switch,congruant,solid,triangle,blue,stimuli/solid-rectangle.png,stimuli/blue-triangle.png,1,,,,,,,,,,,,,0,19,19,19,0,0,0,0,,,,,,,,,,,,,,,,,,,,,,,,,,,,,,,,,,,,,,,,,,,,,,,,,,,,,,,,,,,,,,,,,,,,,,,,,,,,,,,,,,,,,,,,,,,,,,309.1918777942658,310.20951104164124,309.2257812023163,None,,,,,,,,,,,,,306.67508602142334,None,307.65799713134766,None,None,0,,307.65799713134766,None,,,,,,,,,,,,,,,,,,,,,,1000,001,01,2021_Nov_02_1605,task-switching-replication,2021.2.3,59.995937622479246,
1,20,timed,01,standing,switch,congruant,solid,triangle,blue,stimuli/solid-rectangle.png,stimuli/blue-triangle.png,1,,,,,,,,,,,,,0,19,19,19,,,,,,,,,,,,,,,,,,,,,,,,,,,,,,,,,,,,,,,,,,,,,,,,,,,,,,,,,,,,,,,,,,,,,,,,,,,,,,,,,,,,,,,,,,,,314.24497413635254,None,,,,,,,,,,,,,,,,,,,,,,,,,,,,,,,,,,,,,,,,,,,,,,,,,,,1000,001,01,2021_Nov_02_1605,task-switching-replication,2021.2.3,59.995937622479246,
1,21,timed,01,standing,noswitch,incongruant,solid,triangle,yellow,stimuli/solid-rectangle.png,stimuli/yellow-triangle.png,2,,,,,,,,,,,,,0,20,20,20,0,0,0,0,,,,,,,,,,,,,,,,,,,,,,,,,,,,,,,,,,,,,,,,,,,,,,,,,,,,,,,,,,,,,,,,,,,,,,,,,,,,,,,,,,,,,,,,,,,,,,316.54186964035034,317.5925931930542,316.5735490322113,None,,,,,,,,,,,,,314.4409501552582,None,315.4254059791565,None,1,0,0.9951770305633545,315.4254059791565,None,,,,,,,,,,,,,,,,,,,,,,1000,001,01,2021_Nov_02_1605,task-switching-replication,2021.2.3,59.995937622479246,
1,21,timed,01,standing,noswitch,incongruant,solid,triangle,yellow,stimuli/solid-rectangle.png,stimuli/yellow-triangle.png,2,,,,,,,,,,,,,0,20,20,20,,,,,,,,,,,,,,,,,,,,,,,,,,,,,,,,,,,,,,,,,,,,,,,,,,,,,,,,,,,,,,,,,,,,,,,,,,,,,,,,,,,,,,,,,,,,321.59975719451904,None,,,,,,,,,,,,,,,,,,,,,,,,,,,,,,,,,,,,,,,,,,,,,,,,,,,1000,001,01,2021_Nov_02_1605,task-switching-replication,2021.2.3,59.995937622479246,
1,22,timed,01,standing,switch,congruant,dashed,square,blue,stimuli/dashed-rectangle.png,stimuli/blue-square.png,2,,,,,,,,,,,,,0,21,21,21,,,,,0,0,0,0,,,,,,,,,,,,,,,,,,,,,,,,,,,,,,,,,,,,,,,,,,,,,,,,,,,,,,,,,,,,,,,,,,,,,,,,,,,,,,,,,,,,,,323.952921628952,325.00411915779114,323.984827041626,None,,,,,,,,,,,,,,,,,321.79641008377075,None,322.7806570529938,None,1,0,1.0458829402923584,322.7806570529938,None,,,,,,,,,,,,,,,,,,,,,,1000,001,01,2021_Nov_02_1605,task-switching-replication,2021.2.3,59.995937622479246,
1,22,timed,01,standing,switch,congruant,dashed,square,blue,stimuli/dashed-rectangle.png,stimuli/blue-square.png,2,,,,,,,,,,,,,0,21,21,21,,,,,,,,,,,,,,,,,,,,,,,,,,,,,,,,,,,,,,,,,,,,,,,,,,,,,,,,,,,,,,,,,,,,,,,,,,,,,,,,,,,,,,,,,,,,329.00465512275696,None,,,,,,,,,,,,,,,,,,,,,,,,,,,,,,,,,,,,,,,,,,,,,,,,,,,1000,001,01,2021_Nov_02_1605,task-switching-replication,2021.2.3,59.995937622479246,
1,23,timed,01,standing,switch,incongruant,solid,square,blue,stimuli/solid-rectangle.png,stimuli/blue-square.png,1,,,,,,,,,,,,,0,22,22,22,0,0,0,0,,,,,,,,,,,,,,,,,,,,,,,,,,,,,,,,,,,,,,,,,,,,,,,,,,,,,,,,,,,,,,,,,,,,,,,,,,,,,,,,,,,,,,,,,,,,,,331.7184779167176,332.76764607429504,331.7493531703949,None,,,,,,,,,,,,,329.2009541988373,None,330.1839292049408,None,None,0,,330.1839292049408,None,,,,,,,,,,,,,,,,,,,,,,1000,001,01,2021_Nov_02_1605,task-switching-replication,2021.2.3,59.995937622479246,
1,23,timed,01,standing,switch,incongruant,solid,square,blue,stimuli/solid-rectangle.png,stimuli/blue-square.png,1,,,,,,,,,,,,,0,22,22,22,,,,,,,,,,,,,,,,,,,,,,,,,,,,,,,,,,,,,,,,,,,,,,,,,,,,,,,,,,,,,,,,,,,,,,,,,,,,,,,,,,,,,,,,,,,,336.77071809768677,None,,,,,,,,,,,,,,,,,,,,,,,,,,,,,,,,,,,,,,,,,,,,,,,,,,,1000,001,01,2021_Nov_02_1605,task-switching-replication,2021.2.3,59.995937622479246,
1,24,timed,01,standing,noswitch,incongruant,solid,triangle,yellow,stimuli/solid-rectangle.png,stimuli/yellow-triangle.png,2,,,,,,,,,,,,,0,23,23,23,,,,,,,,,,,,,,,,,,,,,,,,,,,,,,,,,,,,,,,,,,,,,,,,,,,,,,,,,,,,,,,,,,,,,,,,,,,,,,,,,,,,,,,,,,,,338.91885900497437,None,,,,,,,,,,,,,,,,,,,,,336.96702814102173,None,337.9536221027374,None,2,1,0.850214958190918,337.9536221027374,None,,,,,,,,,,,,,,,,,,,,,,1000,001,01,2021_Nov_02_1605,task-switching-replication,2021.2.3,59.995937622479246,
1,1,experiment,01,standing,buffer,buffer,solid,triangle,blue,stimuli/solid-rectangle.png,stimuli/blue-triangle.png,1,,,,,,,,,,,,,,,,,,,,,,,,,0,0,0,0,0,0,0,0,0,0,0,0,,,,,,,,,339.16071915626526,None,2,11.673619985580444,339.16071915626526,None,,,,,,,,,,,,,,,,,,,,,,,,,,,,,,,,,,,,,,,,,,,,,,,,,,,,,,,,,,372.85392212867737,None,,,,,,,,,,,,,,,,,,,,,,,,,,,,,,350.9218599796295,None,2,11.375517845153809,350.9218599796295,None,362.4112021923065,None,2,7.830255031585693,362.4112021923065,None,370.37248396873474,None,371.35586619377136,None,1,1,1.3734760284423828,371.35586619377136,None,1000,001,01,2021_Nov_02_1605,task-switching-replication,2021.2.3,59.995937622479246,
1,2,experiment,01,standing,switch,congruant,dashed,triangle,yellow,stimuli/dashed-rectangle.png,stimuli/yellow-triangle.png,1,,,,,,,,,,,,,,,,,,,,,,,,,0,0,0,0,0,0,0,0,0,1,1,1,,,,,0,0,0,0,,,,,,,,,,,,,,,,,,,,,,,,,,,,,,,,,,,,,,,,,,,,,,,,,,,,,,,,,,,,,,,,,,375.5342826843262,376.5851671695709,375.56631207466125,None,,,,,,,,,,,,,,,,,,,,,,,,,,,,,,,,,,,,,,373.0832099914551,None,374.06696605682373,None,2,0,1.3507261276245117,374.06696605682373,None,1000,001,01,2021_Nov_02_1605,task-switching-replication,2021.2.3,59.995937622479246,
1,2,experiment,01,standing,switch,congruant,dashed,triangle,yellow,stimuli/dashed-rectangle.png,stimuli/yellow-triangle.png,1,,,,,,,,,,,,,,,,,,,,,,,,,0,0,0,0,0,0,0,0,0,1,1,1,,,,,,,,,,,,,,,,,,,,,,,,,,,,,,,,,,,,,,,,,,,,,,,,,,,,,,,,,,,,,,,,,,,,,,,,380.59135007858276,None,,,,,,,,,,,,,,,,,,,,,,,,,,,,,,,,,,,,,,,,,,,,,,,,,,,1000,001,01,2021_Nov_02_1605,task-switching-replication,2021.2.3,59.995937622479246,
1,3,experiment,01,standing,noswitch,incongruant,dashed,square,blue,stimuli/dashed-rectangle.png,stimuli/blue-square.png,2,,,,,,,,,,,,,,,,,,,,,,,,,0,0,0,0,0,0,0,0,0,2,2,2,,,,,0,0,0,0,,,,,,,,,,,,,,,,,,,,,,,,,,,,,,,,,,,,,,,,,,,,,,,,,,,,,,,,,,,,,,,,,,383.3063327789307,384.3272371292114,383.3427710533142,None,,,,,,,,,,,,,,,,,,,,,,,,,,,,,,,,,,,,,,380.78792214393616,None,381.77163314819336,None,None,0,,381.77163314819336,None,1000,001,01,2021_Nov_02_1605,task-switching-replication,2021.2.3,59.995937622479246,
1,3,experiment,01,standing,noswitch,incongruant,dashed,square,blue,stimuli/dashed-rectangle.png,stimuli/blue-square.png,2,,,,,,,,,,,,,,,,,,,,,,,,,0,0,0,0,0,0,0,0,0,2,2,2,,,,,,,,,,,,,,,,,,,,,,,,,,,,,,,,,,,,,,,,,,,,,,,,,,,,,,,,,,,,,,,,,,,,,,,,388.3626639842987,None,,,,,,,,,,,,,,,,,,,,,,,,,,,,,,,,,,,,,,,,,,,,,,,,,,,1000,001,01,2021_Nov_02_1605,task-switching-replication,2021.2.3,59.995937622479246,
1,4,experiment,01,standing,noswitch,congruant,dashed,square,blue,stimuli/dashed-rectangle.png,stimuli/blue-square.png,2,,,,,,,,,,,,,,,,,,,,,,,,,0,0,0,0,0,0,0,0,0,3,3,3,,,,,0,0,0,0,,,,,,,,,,,,,,,,,,,,,,,,,,,,,,,,,,,,,,,,,,,,,,,,,,,,,,,,,,,,,,,,,,391.07855577468877,392.1289839744568,391.1099750995636,None,,,,,,,,,,,,,,,,,,,,,,,,,,,,,,,,,,,,,,388.5597040653229,None,389.54347705841064,None,None,0,,389.54347705841064,None,1000,001,01,2021_Nov_02_1605,task-switching-replication,2021.2.3,59.995937622479246,
1,4,experiment,01,standing,noswitch,congruant,dashed,square,blue,stimuli/dashed-rectangle.png,stimuli/blue-square.png,2,,,,,,,,,,,,,,,,,,,,,,,,,0,0,0,0,0,0,0,0,0,3,3,3,,,,,,,,,,,,,,,,,,,,,,,,,,,,,,,,,,,,,,,,,,,,,,,,,,,,,,,,,,,,,,,,,,,,,,,,396.13077902793884,None,,,,,,,,,,,,,,,,,,,,,,,,,,,,,,,,,,,,,,,,,,,,,,,,,,,1000,001,01,2021_Nov_02_1605,task-switching-replication,2021.2.3,59.995937622479246,
1,5,experiment,01,standing,switch,incongruant,solid,triangle,blue,stimuli/solid-rectangle.png,stimuli/blue-triangle.png,1,,,,,,,,,,,,,,,,,,,,,,,,,0,0,0,0,0,0,0,0,0,4,4,4,,,,,,,,,,,,,,,,,,,,,,,,,,,,,,,,,,,,,,,,,,,,,,,,,,,,,,,,,,,,,,,,,,,,,,,,398.3394980430603,None,,,,,,,,,,,,,,,,,,,,,,,,,,,,,,,,,,,,,,,,,,396.32800698280334,None,397.3121840953827,None,1,1,0.9025359153747559,397.3121840953827,None,1000,001,01,2021_Nov_02_1605,task-switching-replication,2021.2.3,59.995937622479246,
1,6,experiment,01,standing,noswitch,congruant,solid,triangle,blue,stimuli/solid-rectangle.png,stimuli/blue-triangle.png,1,,,,,,,,,,,,,,,,,,,,,,,,,0,0,0,0,0,0,0,0,0,5,5,5,0,0,0,0,,,,,,,,,,,,,,,,,,,,,,,,,,,,,,,,,,,,,,,,,,,,,,,,,,,,,,,,,,,,,,,,,,,,,,,,,,401.0879659175873,402.14007019996643,401.11902618408203,None,,,,,,,,,,,,,,,,,,,,,,,,,,,,,,,,,,398.56861901283264,None,399.55239701271057,None,None,0,,399.55239701271057,None,1000,001,01,2021_Nov_02_1605,task-switching-replication,2021.2.3,59.995937622479246,
1,6,experiment,01,standing,noswitch,congruant,solid,triangle,blue,stimuli/solid-rectangle.png,stimuli/blue-triangle.png,1,,,,,,,,,,,,,,,,,,,,,,,,,0,0,0,0,0,0,0,0,0,5,5,5,,,,,,,,,,,,,,,,,,,,,,,,,,,,,,,,,,,,,,,,,,,,,,,,,,,,,,,,,,,,,,,,,,,,,,,,406.1432089805603,None,,,,,,,,,,,,,,,,,,,,,,,,,,,,,,,,,,,,,,,,,,,,,,,,,,,1000,001,01,2021_Nov_02_1605,task-switching-replication,2021.2.3,59.995937622479246,
1,7,experiment,01,standing,switch,congruant,dashed,triangle,yellow,stimuli/dashed-rectangle.png,stimuli/yellow-triangle.png,1,,,,,,,,,,,,,,,,,,,,,,,,,0,0,0,0,0,0,0,0,0,6,6,6,,,,,0,0,0,0,,,,,,,,,,,,,,,,,,,,,,,,,,,,,,,,,,,,,,,,,,,,,,,,,,,,,,,,,,,,,,,,,,408.67566561698914,409.72632002830505,408.70767402648926,None,,,,,,,,,,,,,,,,,,,,,,,,,,,,,,,,,,,,,,406.34056210517883,None,407.32558512687683,None,2,0,1.2541048526763916,407.32558512687683,None,1000,001,01,2021_Nov_02_1605,task-switching-replication,2021.2.3,59.995937622479246,
1,7,experiment,01,standing,switch,congruant,dashed,triangle,yellow,stimuli/dashed-rectangle.png,stimuli/yellow-triangle.png,1,,,,,,,,,,,,,,,,,,,,,,,,,0,0,0,0,0,0,0,0,0,6,6,6,,,,,,,,,,,,,,,,,,,,,,,,,,,,,,,,,,,,,,,,,,,,,,,,,,,,,,,,,,,,,,,,,,,,,,,,413.7250850200653,None,,,,,,,,,,,,,,,,,,,,,,,,,,,,,,,,,,,,,,,,,,,,,,,,,,,1000,001,01,2021_Nov_02_1605,task-switching-replication,2021.2.3,59.995937622479246,
1,8,experiment,01,standing,switch,congruant,solid,square,blue,stimuli/solid-rectangle.png,stimuli/blue-square.png,1,,,,,,,,,,,,,,,,,,,,,,,,,0,0,0,0,0,0,0,0,0,7,7,7,,,,,,,,,,,,,,,,,,,,,,,,,,,,,,,,,,,,,,,,,,,,,,,,,,,,,,,,,,,,,,,,,,,,,,,,416.16567301750183,None,,,,,,,,,,,,,,,,,,,,,,,,,,,,,,,,,,,,,,,,,,413.92205905914307,None,414.906574010849,None,1,1,1.1359350681304932,414.906574010849,None,1000,001,01,2021_Nov_02_1605,task-switching-replication,2021.2.3,59.995937622479246,
1,9,experiment,01,standing,noswitch,congruant,solid,square,blue,stimuli/solid-rectangle.png,stimuli/blue-square.png,1,,,,,,,,,,,,,,,,,,,,,,,,,0,0,0,0,0,0,0,0,0,8,8,8,,,,,,,,,,,,,,,,,,,,,,,,,,,,,,,,,,,,,,,,,,,,,,,,,,,,,,,,,,,,,,,,,,,,,,,,418.2837061882019,None,,,,,,,,,,,,,,,,,,,,,,,,,,,,,,,,,,,,,,,,,,416.39455008506775,None,417.37898111343384,None,1,1,0.7844250202178955,417.37898111343384,None,1000,001,01,2021_Nov_02_1605,task-switching-replication,2021.2.3,59.995937622479246,
1,10,experiment,01,standing,noswitch,incongruant,solid,square,yellow,stimuli/solid-rectangle.png,stimuli/yellow-square.png,2,,,,,,,,,,,,,,,,,,,,,,,,,0,0,0,0,0,0,0,0,0,9,9,9,0,0,0,0,,,,,,,,,,,,,,,,,,,,,,,,,,,,,,,,,,,,,,,,,,,,,,,,,,,,,,,,,,,,,,,,,,,,,,,,,,420.2569296360016,421.3081669807434,420.2897000312805,None,,,,,,,,,,,,,,,,,,,,,,,,,,,,,,,,,,418.51281118392944,None,419.4982171058655,None,1,0,0.6931860446929932,419.4982171058655,None,1000,001,01,2021_Nov_02_1605,task-switching-replication,2021.2.3,59.995937622479246,
1,10,experiment,01,standing,noswitch,incongruant,solid,square,yellow,stimuli/solid-rectangle.png,stimuli/yellow-square.png,2,,,,,,,,,,,,,,,,,,,,,,,,,0,0,0,0,0,0,0,0,0,9,9,9,,,,,,,,,,,,,,,,,,,,,,,,,,,,,,,,,,,,,,,,,,,,,,,,,,,,,,,,,,,,,,,,,,,,,,,,425.309198141098,None,,,,,,,,,,,,,,,,,,,,,,,,,,,,,,,,,,,,,,,,,,,,,,,,,,,1000,001,01,2021_Nov_02_1605,task-switching-replication,2021.2.3,59.995937622479246,
1,11,experiment,01,standing,switch,incongruant,dashed,triangle,yellow,stimuli/dashed-rectangle.png,stimuli/yellow-triangle.png,1,,,,,,,,,,,,,,,,,,,,,,,,,0,0,0,0,0,0,0,0,0,10,10,10,,,,,0,0,0,0,,,,,,,,,,,,,,,,,,,,,,,,,,,,,,,,,,,,,,,,,,,,,,,,,,,,,,,,,,,,,,,,,,427.83796763420105,428.8904399871826,427.8711271286011,None,,,,,,,,,,,,,,,,,,,,,,,,,,,,,,,,,,,,,,425.50545597076416,None,426.48940801620483,None,2,0,1.2628509998321533,426.48940801620483,None,1000,001,01,2021_Nov_02_1605,task-switching-replication,2021.2.3,59.995937622479246,
1,11,experiment,01,standing,switch,incongruant,dashed,triangle,yellow,stimuli/dashed-rectangle.png,stimuli/yellow-triangle.png,1,,,,,,,,,,,,,,,,,,,,,,,,,0,0,0,0,0,0,0,0,0,10,10,10,,,,,,,,,,,,,,,,,,,,,,,,,,,,,,,,,,,,,,,,,,,,,,,,,,,,,,,,,,,,,,,,,,,,,,,,432.8949661254883,None,,,,,,,,,,,,,,,,,,,,,,,,,,,,,,,,,,,,,,,,,,,,,,,,,,,1000,001,01,2021_Nov_02_1605,task-switching-replication,2021.2.3,59.995937622479246,
1,12,experiment,01,standing,switch,incongruant,solid,square,yellow,stimuli/solid-rectangle.png,stimuli/yellow-square.png,2,,,,,,,,,,,,,,,,,,,,,,,,,0,0,0,0,0,0,0,0,0,11,11,11,,,,,,,,,,,,,,,,,,,,,,,,,,,,,,,,,,,,,,,,,,,,,,,,,,,,,,,,,,,,,,,,,,,,,,,,435.04002809524536,None,,,,,,,,,,,,,,,,,,,,,,,,,,,,,,,,,,,,,,,,,,433.09109807014465,None,434.0739860534668,None,2,1,0.8326280117034912,434.0739860534668,None,1000,001,01,2021_Nov_02_1605,task-switching-replication,2021.2.3,59.995937622479246,
1,13,experiment,01,standing,switch,congruant,dashed,square,blue,stimuli/dashed-rectangle.png,stimuli/blue-square.png,2,,,,,,,,,,,,,,,,,,,,,,,,,0,0,0,0,0,0,0,0,0,12,12,12,,,,,0,0,0,0,,,,,,,,,,,,,,,,,,,,,,,,,,,,,,,,,,,,,,,,,,,,,,,,,,,,,,,,,,,,,,,,,,437.78750486373906,438.80849599838257,437.8190631866455,None,,,,,,,,,,,,,,,,,,,,,,,,,,,,,,,,,,,,,,435.2690169811249,None,436.2527611255646,None,None,0,,436.2527611255646,None,1000,001,01,2021_Nov_02_1605,task-switching-replication,2021.2.3,59.995937622479246,
1,13,experiment,01,standing,switch,congruant,dashed,square,blue,stimuli/dashed-rectangle.png,stimuli/blue-square.png,2,,,,,,,,,,,,,,,,,,,,,,,,,0,0,0,0,0,0,0,0,0,12,12,12,,,,,,,,,,,,,,,,,,,,,,,,,,,,,,,,,,,,,,,,,,,,,,,,,,,,,,,,,,,,,,,,,,,,,,,,442.84601616859436,None,,,,,,,,,,,,,,,,,,,,,,,,,,,,,,,,,,,,,,,,,,,,,,,,,,,1000,001,01,2021_Nov_02_1605,task-switching-replication,2021.2.3,59.995937622479246,
1,14,experiment,01,standing,noswitch,congruant,dashed,square,yellow,stimuli/dashed-rectangle.png,stimuli/yellow-square.png,2,,,,,,,,,,,,,,,,,,,,,,,,,0,0,0,0,0,0,0,0,0,13,13,13,,,,,0,0,0,0,,,,,,,,,,,,,,,,,,,,,,,,,,,,,,,,,,,,,,,,,,,,,,,,,,,,,,,,,,,,,,,,,,445.02179050445557,446.07318019866943,445.05436611175537,None,,,,,,,,,,,,,,,,,,,,,,,,,,,,,,,,,,,,,,443.0422179698944,None,444.0255169868469,None,1,0,0.9059369564056396,444.0255169868469,None,1000,001,01,2021_Nov_02_1605,task-switching-replication,2021.2.3,59.995937622479246,
1,14,experiment,01,standing,noswitch,congruant,dashed,square,yellow,stimuli/dashed-rectangle.png,stimuli/yellow-square.png,2,,,,,,,,,,,,,,,,,,,,,,,,,0,0,0,0,0,0,0,0,0,13,13,13,,,,,,,,,,,,,,,,,,,,,,,,,,,,,,,,,,,,,,,,,,,,,,,,,,,,,,,,,,,,,,,,,,,,,,,,450.08074498176575,None,,,,,,,,,,,,,,,,,,,,,,,,,,,,,,,,,,,,,,,,,,,,,,,,,,,1000,001,01,2021_Nov_02_1605,task-switching-replication,2021.2.3,59.995937622479246,
1,15,experiment,01,standing,noswitch,incongruant,dashed,triangle,blue,stimuli/dashed-rectangle.png,stimuli/blue-triangle.png,1,,,,,,,,,,,,,,,,,,,,,,,,,0,0,0,0,0,0,0,0,0,14,14,14,,,,,,,,,,,,,,,,,,,,,,,,,,,,,,,,,,,,,,,,,,,,,,,,,,,,,,,,,,,,,,,,,,,,,,,,451.92836117744446,None,,,,,,,,,,,,,,,,,,,,,,,,,,,,,,,,,,,,,,,,,,450.27712297439575,None,451.2598819732666,None,1,1,0.5706570148468018,451.2598819732666,None,1000,001,01,2021_Nov_02_1605,task-switching-replication,2021.2.3,59.995937622479246,
1,16,experiment,01,standing,switch,incongruant,solid,triangle,yellow,stimuli/solid-rectangle.png,stimuli/yellow-triangle.png,2,,,,,,,,,,,,,,,,,,,,,,,,,0,0,0,0,0,0,0,0,0,15,15,15,,,,,,,,,,,,,,,,,,,,,,,,,,,,,,,,,,,,,,,,,,,,,,,,,,,,,,,,,,,,,,,,,,,,,,,,454.34581303596497,None,,,,,,,,,,,,,,,,,,,,,,,,,,,,,,,,,,,,,,,,,,452.15699911117554,None,453.14157915115356,None,2,1,1.0561201572418213,453.14157915115356,None,1000,001,01,2021_Nov_02_1605,task-switching-replication,2021.2.3,59.995937622479246,
1,17,experiment,01,standing,noswitch,congruant,solid,square,yellow,stimuli/solid-rectangle.png,stimuli/yellow-square.png,2,,,,,,,,,,,,,,,,,,,,,,,,,0,0,0,0,0,0,0,0,0,16,16,16,,,,,,,,,,,,,,,,,,,,,,,,,,,,,,,,,,,,,,,,,,,,,,,,,,,,,,,,,,,,,,,,,,,,,,,,456.34649109840393,None,,,,,,,,,,,,,,,,,,,,,,,,,,,,,,,,,,,,,,,,,,454.5747480392456,None,455.5595049858093,None,2,1,0.6768200397491455,455.5595049858093,None,1000,001,01,2021_Nov_02_1605,task-switching-replication,2021.2.3,59.995937622479246,
1,18,experiment,01,standing,switch,incongruant,dashed,triangle,blue,stimuli/dashed-rectangle.png,stimuli/blue-triangle.png,1,,,,,,,,,,,,,,,,,,,,,,,,,0,0,0,0,0,0,0,0,0,17,17,17,,,,,,,,,,,,,,,,,,,,,,,,,,,,,,,,,,,,,,,,,,,,,,,,,,,,,,,,,,,,,,,,,,,,,,,,458.28715920448303,None,,,,,,,,,,,,,,,,,,,,,,,,,,,,,,,,,,,,,,,,,,456.5754051208496,None,457.5598521232605,None,1,1,0.5987248420715332,457.5598521232605,None,1000,001,01,2021_Nov_02_1605,task-switching-replication,2021.2.3,59.995937622479246,
1,19,experiment,01,standing,switch,congruant,solid,triangle,blue,stimuli/solid-rectangle.png,stimuli/blue-triangle.png,1,,,,,,,,,,,,,,,,,,,,,,,,,0,0,0,0,0,0,0,0,0,18,18,18,,,,,,,,,,,,,,,,,,,,,,,,,,,,,,,,,,,,,,,,,,,,,,,,,,,,,,,,,,,,,,,,,,,,,,,,460.6432499885559,None,,,,,,,,,,,,,,,,,,,,,,,,,,,,,,,,,,,,,,,,,,458.5169050693512,None,459.50147318840027,None,1,1,1.0138359069824219,459.50147318840027,None,1000,001,01,2021_Nov_02_1605,task-switching-replication,2021.2.3,59.995937622479246,
1,20,experiment,01,standing,switch,incongruant,dashed,square,yellow,stimuli/dashed-rectangle.png,stimuli/yellow-square.png,2,,,,,,,,,,,,,,,,,,,,,,,,,0,0,0,0,0,0,0,0,0,19,19,19,,,,,0,0,0,0,,,,,,,,,,,,,,,,,,,,,,,,,,,,,,,,,,,,,,,,,,,,,,,,,,,,,,,,,,,,,,,,,,463.3930668354035,464.4432611465454,463.4245910644531,None,,,,,,,,,,,,,,,,,,,,,,,,,,,,,,,,,,,,,,460.8741421699524,None,461.8583559989929,None,None,0,,461.8583559989929,None,1000,001,01,2021_Nov_02_1605,task-switching-replication,2021.2.3,59.995937622479246,
1,20,experiment,01,standing,switch,incongruant,dashed,square,yellow,stimuli/dashed-rectangle.png,stimuli/yellow-square.png,2,,,,,,,,,,,,,,,,,,,,,,,,,0,0,0,0,0,0,0,0,0,19,19,19,,,,,,,,,,,,,,,,,,,,,,,,,,,,,,,,,,,,,,,,,,,,,,,,,,,,,,,,,,,,,,,,,,,,,,,,468.44676518440247,None,,,,,,,,,,,,,,,,,,,,,,,,,,,,,,,,,,,,,,,,,,,,,,,,,,,1000,001,01,2021_Nov_02_1605,task-switching-replication,2021.2.3,59.995937622479246,
1,21,experiment,01,standing,noswitch,congruant,dashed,square,yellow,stimuli/dashed-rectangle.png,stimuli/yellow-square.png,2,,,,,,,,,,,,,,,,,,,,,,,,,0,0,0,0,0,0,0,0,0,20,20,20,,,,,0,0,0,0,,,,,,,,,,,,,,,,,,,,,,,,,,,,,,,,,,,,,,,,,,,,,,,,,,,,,,,,,,,,,,,,,,470.7999486923218,471.85200905799866,470.8335871696472,None,,,,,,,,,,,,,,,,,,,,,,,,,,,,,,,,,,,,,,468.64342308044434,None,469.6279890537262,None,1,0,1.060373067855835,469.6279890537262,None,1000,001,01,2021_Nov_02_1605,task-switching-replication,2021.2.3,59.995937622479246,
1,21,experiment,01,standing,noswitch,congruant,dashed,square,yellow,stimuli/dashed-rectangle.png,stimuli/yellow-square.png,2,,,,,,,,,,,,,,,,,,,,,,,,,0,0,0,0,0,0,0,0,0,20,20,20,,,,,,,,,,,,,,,,,,,,,,,,,,,,,,,,,,,,,,,,,,,,,,,,,,,,,,,,,,,,,,,,,,,,,,,,475.85532999038696,None,,,,,,,,,,,,,,,,,,,,,,,,,,,,,,,,,,,,,,,,,,,,,,,,,,,1000,001,01,2021_Nov_02_1605,task-switching-replication,2021.2.3,59.995937622479246,
1,22,experiment,01,standing,noswitch,congruant,dashed,square,yellow,stimuli/dashed-rectangle.png,stimuli/yellow-square.png,2,,,,,,,,,,,,,,,,,,,,,,,,,0,0,0,0,0,0,0,0,0,21,21,21,,,,,0,0,0,0,,,,,,,,,,,,,,,,,,,,,,,,,,,,,,,,,,,,,,,,,,,,,,,,,,,,,,,,,,,,,,,,,,478.5774678707123,479.6282260417938,478.6082901954651,None,,,,,,,,,,,,,,,,,,,,,,,,,,,,,,,,,,,,,,476.05211305618286,None,477.03755497932434,None,None,0,,477.03755497932434,None,1000,001,01,2021_Nov_02_1605,task-switching-replication,2021.2.3,59.995937622479246,
1,22,experiment,01,standing,noswitch,congruant,dashed,square,yellow,stimuli/dashed-rectangle.png,stimuli/yellow-square.png,2,,,,,,,,,,,,,,,,,,,,,,,,,0,0,0,0,0,0,0,0,0,21,21,21,,,,,,,,,,,,,,,,,,,,,,,,,,,,,,,,,,,,,,,,,,,,,,,,,,,,,,,,,,,,,,,,,,,,,,,,483.6266942024231,None,,,,,,,,,,,,,,,,,,,,,,,,,,,,,,,,,,,,,,,,,,,,,,,,,,,1000,001,01,2021_Nov_02_1605,task-switching-replication,2021.2.3,59.995937622479246,
1,23,experiment,01,standing,noswitch,incongruant,dashed,triangle,blue,stimuli/dashed-rectangle.png,stimuli/blue-triangle.png,1,,,,,,,,,,,,,,,,,,,,,,,,,0,0,0,0,0,0,0,0,0,22,22,22,,,,,,,,,,,,,,,,,,,,,,,,,,,,,,,,,,,,,,,,,,,,,,,,,,,,,,,,,,,,,,,,,,,,,,,,485.4756410121918,None,,,,,,,,,,,,,,,,,,,,,,,,,,,,,,,,,,,,,,,,,,483.8237421512604,None,484.80788111686707,None,1,1,0.5247440338134766,484.80788111686707,None,1000,001,01,2021_Nov_02_1605,task-switching-replication,2021.2.3,59.995937622479246,
1,24,experiment,01,standing,switch,incongruant,solid,square,yellow,stimuli/solid-rectangle.png,stimuli/yellow-square.png,2,,,,,,,,,,,,,,,,,,,,,,,,,0,0,0,0,0,0,0,0,0,23,23,23,,,,,,,,,,,,,,,,,,,,,,,,,,,,,,,,,,,,,,,,,,,,,,,,,,,,,,,,,,,,,,,,,,,,,,,,487.534921169281,None,,,,,,,,,,,,,,,,,,,,,,,,,,,,,,,,,,,,,,,,,,485.70410108566284,None,486.68925309181213,None,2,1,0.7071919441223145,486.68925309181213,None,1000,001,01,2021_Nov_02_1605,task-switching-replication,2021.2.3,59.995937622479246,
1,25,experiment,01,standing,switch,congruant,dashed,square,yellow,stimuli/dashed-rectangle.png,stimuli/yellow-square.png,2,,,,,,,,,,,,,,,,,,,,,,,,,0,0,0,0,0,0,0,0,0,24,24,24,,,,,0,0,0,0,,,,,,,,,,,,,,,,,,,,,,,,,,,,,,,,,,,,,,,,,,,,,,,,,,,,,,,,,,,,,,,,,,490.0953965187073,491.1463460922241,490.12790298461914,None,,,,,,,,,,,,,,,,,,,,,,,,,,,,,,,,,,,,,,487.7640881538391,None,488.74718499183655,None,1,0,1.2744169235229492,488.74718499183655,None,1000,001,01,2021_Nov_02_1605,task-switching-replication,2021.2.3,59.995937622479246,
1,25,experiment,01,standing,switch,congruant,dashed,square,yellow,stimuli/dashed-rectangle.png,stimuli/yellow-square.png,2,,,,,,,,,,,,,,,,,,,,,,,,,0,0,0,0,0,0,0,0,0,24,24,24,,,,,,,,,,,,,,,,,,,,,,,,,,,,,,,,,,,,,,,,,,,,,,,,,,,,,,,,,,,,,,,,,,,,,,,,495.1489541530609,None,,,,,,,,,,,,,,,,,,,,,,,,,,,,,,,,,,,,,,,,,,,,,,,,,,,1000,001,01,2021_Nov_02_1605,task-switching-replication,2021.2.3,59.995937622479246,
1,26,experiment,01,standing,noswitch,incongruant,dashed,triangle,yellow,stimuli/dashed-rectangle.png,stimuli/yellow-triangle.png,1,,,,,,,,,,,,,,,,,,,,,,,,,0,0,0,0,0,0,0,0,0,25,25,25,,,,,0,0,0,0,,,,,,,,,,,,,,,,,,,,,,,,,,,,,,,,,,,,,,,,,,,,,,,,,,,,,,,,,,,,,,,,,,497.864206981659,498.9128620624542,497.89554810523987,None,,,,,,,,,,,,,,,,,,,,,,,,,,,,,,,,,,,,,,495.3455979824066,None,496.33002519607544,None,None,0,,496.33002519607544,None,1000,001,01,2021_Nov_02_1605,task-switching-replication,2021.2.3,59.995937622479246,
1,26,experiment,01,standing,noswitch,incongruant,dashed,triangle,yellow,stimuli/dashed-rectangle.png,stimuli/yellow-triangle.png,1,,,,,,,,,,,,,,,,,,,,,,,,,0,0,0,0,0,0,0,0,0,25,25,25,,,,,,,,,,,,,,,,,,,,,,,,,,,,,,,,,,,,,,,,,,,,,,,,,,,,,,,,,,,,,,,,,,,,,,,,502.91267800331116,None,,,,,,,,,,,,,,,,,,,,,,,,,,,,,,,,,,,,,,,,,,,,,,,,,,,1000,001,01,2021_Nov_02_1605,task-switching-replication,2021.2.3,59.995937622479246,
1,27,experiment,01,standing,noswitch,congruant,dashed,triangle,blue,stimuli/dashed-rectangle.png,stimuli/blue-triangle.png,1,,,,,,,,,,,,,,,,,,,,,,,,,0,0,0,0,0,0,0,0,0,26,26,26,,,,,,,,,,,,,,,,,,,,,,,,,,,,,,,,,,,,,,,,,,,,,,,,,,,,,,,,,,,,,,,,,,,,,,,,504.9983420372009,None,,,,,,,,,,,,,,,,,,,,,,,,,,,,,,,,,,,,,,,,,,503.10994505882263,None,504.09377217292786,None,1,1,0.7555179595947266,504.09377217292786,None,1000,001,01,2021_Nov_02_1605,task-switching-replication,2021.2.3,59.995937622479246,
1,28,experiment,01,standing,noswitch,incongruant,dashed,square,blue,stimuli/dashed-rectangle.png,stimuli/blue-square.png,2,,,,,,,,,,,,,,,,,,,,,,,,,0,0,0,0,0,0,0,0,0,27,27,27,,,,,0,0,0,0,,,,,,,,,,,,,,,,,,,,,,,,,,,,,,,,,,,,,,,,,,,,,,,,,,,,,,,,,,,,,,,,,,507.0297236442566,508.08166217803955,507.0627820491791,None,,,,,,,,,,,,,,,,,,,,,,,,,,,,,,,,,,,,,,505.2267611026764,None,506.21081614494324,None,1,0,0.720412015914917,506.21081614494324,None,1000,001,01,2021_Nov_02_1605,task-switching-replication,2021.2.3,59.995937622479246,
1,28,experiment,01,standing,noswitch,incongruant,dashed,square,blue,stimuli/dashed-rectangle.png,stimuli/blue-square.png,2,,,,,,,,,,,,,,,,,,,,,,,,,0,0,0,0,0,0,0,0,0,27,27,27,,,,,,,,,,,,,,,,,,,,,,,,,,,,,,,,,,,,,,,,,,,,,,,,,,,,,,,,,,,,,,,,,,,,,,,,512.0851781368256,None,,,,,,,,,,,,,,,,,,,,,,,,,,,,,,,,,,,,,,,,,,,,,,,,,,,1000,001,01,2021_Nov_02_1605,task-switching-replication,2021.2.3,59.995937622479246,
1,29,experiment,01,standing,switch,congruant,solid,square,yellow,stimuli/solid-rectangle.png,stimuli/yellow-square.png,2,,,,,,,,,,,,,,,,,,,,,,,,,0,0,0,0,0,0,0,0,0,28,28,28,0,0,0,0,,,,,,,,,,,,,,,,,,,,,,,,,,,,,,,,,,,,,,,,,,,,,,,,,,,,,,,,,,,,,,,,,,,,,,,,,,514.8037259101868,515.8221960067749,514.8347702026367,None,,,,,,,,,,,,,,,,,,,,,,,,,,,,,,,,,,512.2820410728455,None,513.2676951885223,None,None,0,,513.2676951885223,None,1000,001,01,2021_Nov_02_1605,task-switching-replication,2021.2.3,59.995937622479246,
1,29,experiment,01,standing,switch,congruant,solid,square,yellow,stimuli/solid-rectangle.png,stimuli/yellow-square.png,2,,,,,,,,,,,,,,,,,,,,,,,,,0,0,0,0,0,0,0,0,0,28,28,28,,,,,,,,,,,,,,,,,,,,,,,,,,,,,,,,,,,,,,,,,,,,,,,,,,,,,,,,,,,,,,,,,,,,,,,,519.8603429794312,None,,,,,,,,,,,,,,,,,,,,,,,,,,,,,,,,,,,,,,,,,,,,,,,,,,,1000,001,01,2021_Nov_02_1605,task-switching-replication,2021.2.3,59.995937622479246,
1,30,experiment,01,standing,switch,congruant,dashed,square,blue,stimuli/dashed-rectangle.png,stimuli/blue-square.png,2,,,,,,,,,,,,,,,,,,,,,,,,,0,0,0,0,0,0,0,0,0,29,29,29,,,,,0,0,0,0,,,,,,,,,,,,,,,,,,,,,,,,,,,,,,,,,,,,,,,,,,,,,,,,,,,,,,,,,,,,,,,,,,521.7988886833191,522.8491439819336,521.8309969902039,None,,,,,,,,,,,,,,,,,,,,,,,,,,,,,,,,,,,,,,520.0567100048065,None,521.039920091629,None,1,0,0.6625440120697021,521.039920091629,None,1000,001,01,2021_Nov_02_1605,task-switching-replication,2021.2.3,59.995937622479246,
1,30,experiment,01,standing,switch,congruant,dashed,square,blue,stimuli/dashed-rectangle.png,stimuli/blue-square.png,2,,,,,,,,,,,,,,,,,,,,,,,,,0,0,0,0,0,0,0,0,0,29,29,29,,,,,,,,,,,,,,,,,,,,,,,,,,,,,,,,,,,,,,,,,,,,,,,,,,,,,,,,,,,,,,,,,,,,,,,,526.8500130176544,None,,,,,,,,,,,,,,,,,,,,,,,,,,,,,,,,,,,,,,,,,,,,,,,,,,,1000,001,01,2021_Nov_02_1605,task-switching-replication,2021.2.3,59.995937622479246,
1,31,experiment,01,standing,switch,congruant,solid,triangle,yellow,stimuli/solid-rectangle.png,stimuli/yellow-triangle.png,2,,,,,,,,,,,,,,,,,,,,,,,,,0,0,0,0,0,0,0,0,0,30,30,30,0,0,0,0,,,,,,,,,,,,,,,,,,,,,,,,,,,,,,,,,,,,,,,,,,,,,,,,,,,,,,,,,,,,,,,,,,,,,,,,,,529.084808588028,530.1359100341797,529.1173181533813,None,,,,,,,,,,,,,,,,,,,,,,,,,,,,,,,,,,527.0459151268005,None,528.0306000709534,None,1,0,0.9577369689941406,528.0306000709534,None,1000,001,01,2021_Nov_02_1605,task-switching-replication,2021.2.3,59.995937622479246,
1,31,experiment,01,standing,switch,congruant,solid,triangle,yellow,stimuli/solid-rectangle.png,stimuli/yellow-triangle.png,2,,,,,,,,,,,,,,,,,,,,,,,,,0,0,0,0,0,0,0,0,0,30,30,30,,,,,,,,,,,,,,,,,,,,,,,,,,,,,,,,,,,,,,,,,,,,,,,,,,,,,,,,,,,,,,,,,,,,,,,,534.1358790397644,None,,,,,,,,,,,,,,,,,,,,,,,,,,,,,,,,,,,,,,,,,,,,,,,,,,,1000,001,01,2021_Nov_02_1605,task-switching-replication,2021.2.3,59.995937622479246,
1,32,experiment,01,standing,noswitch,incongruant,solid,square,blue,stimuli/solid-rectangle.png,stimuli/blue-square.png,1,,,,,,,,,,,,,,,,,,,,,,,,,0,0,0,0,0,0,0,0,0,31,31,31,,,,,,,,,,,,,,,,,,,,,,,,,,,,,,,,,,,,,,,,,,,,,,,,,,,,,,,,,,,,,,,,,,,,,,,,536.751471042633,None,,,,,,,,,,,,,,,,,,,,,,,,,,,,,,,,,,,,,,,,,,534.3321211338043,None,535.3158221244812,None,1,1,1.3243868350982666,535.3158221244812,None,1000,001,01,2021_Nov_02_1605,task-switching-replication,2021.2.3,59.995937622479246,
1,33,experiment,01,standing,noswitch,incongruant,solid,triangle,yellow,stimuli/solid-rectangle.png,stimuli/yellow-triangle.png,2,,,,,,,,,,,,,,,,,,,,,,,,,0,0,0,0,0,0,0,0,0,32,32,32,0,0,0,0,,,,,,,,,,,,,,,,,,,,,,,,,,,,,,,,,,,,,,,,,,,,,,,,,,,,,,,,,,,,,,,,,,,,,,,,,,538.7817015647888,539.8329350948334,538.8142349720001,None,,,,,,,,,,,,,,,,,,,,,,,,,,,,,,,,,,536.9798891544342,None,537.9634289741516,None,1,0,0.7117781639099121,537.9634289741516,None,1000,001,01,2021_Nov_02_1605,task-switching-replication,2021.2.3,59.995937622479246,
1,33,experiment,01,standing,noswitch,incongruant,solid,triangle,yellow,stimuli/solid-rectangle.png,stimuli/yellow-triangle.png,2,,,,,,,,,,,,,,,,,,,,,,,,,0,0,0,0,0,0,0,0,0,32,32,32,,,,,,,,,,,,,,,,,,,,,,,,,,,,,,,,,,,,,,,,,,,,,,,,,,,,,,,,,,,,,,,,,,,,,,,,543.8303480148315,None,,,,,,,,,,,,,,,,,,,,,,,,,,,,,,,,,,,,,,,,,,,,,,,,,,,1000,001,01,2021_Nov_02_1605,task-switching-replication,2021.2.3,59.995937622479246,
1,34,experiment,01,standing,noswitch,incongruant,solid,triangle,blue,stimuli/solid-rectangle.png,stimuli/blue-triangle.png,1,,,,,,,,,,,,,,,,,,,,,,,,,0,0,0,0,0,0,0,0,0,33,33,33,0,0,0,0,,,,,,,,,,,,,,,,,,,,,,,,,,,,,,,,,,,,,,,,,,,,,,,,,,,,,,,,,,,,,,,,,,,,,,,,,,546.547289800644,547.5656480789185,546.5783121585846,None,,,,,,,,,,,,,,,,,,,,,,,,,,,,,,,,,,544.0272550582886,None,545.0116190910339,None,None,0,,545.0116190910339,None,1000,001,01,2021_Nov_02_1605,task-switching-replication,2021.2.3,59.995937622479246,
1,34,experiment,01,standing,noswitch,incongruant,solid,triangle,blue,stimuli/solid-rectangle.png,stimuli/blue-triangle.png,1,,,,,,,,,,,,,,,,,,,,,,,,,0,0,0,0,0,0,0,0,0,33,33,33,,,,,,,,,,,,,,,,,,,,,,,,,,,,,,,,,,,,,,,,,,,,,,,,,,,,,,,,,,,,,,,,,,,,,,,,551.6017010211945,None,,,,,,,,,,,,,,,,,,,,,,,,,,,,,,,,,,,,,,,,,,,,,,,,,,,1000,001,01,2021_Nov_02_1605,task-switching-replication,2021.2.3,59.995937622479246,
1,35,experiment,01,standing,noswitch,incongruant,solid,triangle,yellow,stimuli/solid-rectangle.png,stimuli/yellow-triangle.png,2,,,,,,,,,,,,,,,,,,,,,,,,,0,0,0,0,0,0,0,0,0,34,34,34,0,0,0,0,,,,,,,,,,,,,,,,,,,,,,,,,,,,,,,,,,,,,,,,,,,,,,,,,,,,,,,,,,,,,,,,,,,,,,,,,,553.8945095539093,554.9163739681244,553.9277670383453,None,,,,,,,,,,,,,,,,,,,,,,,,,,,,,,,,,,551.7976939678192,None,552.780953168869,None,1,0,1.0352389812469482,552.780953168869,None,1000,001,01,2021_Nov_02_1605,task-switching-replication,2021.2.3,59.995937622479246,
1,35,experiment,01,standing,noswitch,incongruant,solid,triangle,yellow,stimuli/solid-rectangle.png,stimuli/yellow-triangle.png,2,,,,,,,,,,,,,,,,,,,,,,,,,0,0,0,0,0,0,0,0,0,34,34,34,,,,,,,,,,,,,,,,,,,,,,,,,,,,,,,,,,,,,,,,,,,,,,,,,,,,,,,,,,,,,,,,,,,,,,,,558.9409320354462,None,,,,,,,,,,,,,,,,,,,,,,,,,,,,,,,,,,,,,,,,,,,,,,,,,,,1000,001,01,2021_Nov_02_1605,task-switching-replication,2021.2.3,59.995937622479246,
1,36,experiment,01,standing,noswitch,incongruant,solid,square,blue,stimuli/solid-rectangle.png,stimuli/blue-square.png,1,,,,,,,,,,,,,,,,,,,,,,,,,0,0,0,0,0,0,0,0,0,35,35,35,,,,,,,,,,,,,,,,,,,,,,,,,,,,,,,,,,,,,,,,,,,,,,,,,,,,,,,,,,,,,,,,,,,,,,,,561.0249540805817,None,,,,,,,,,,,,,,,,,,,,,,,,,,,,,,,,,,,,,,,,,,559.1372470855713,None,560.1203420162201,None,1,1,0.7658810615539551,560.1203420162201,None,1000,001,01,2021_Nov_02_1605,task-switching-replication,2021.2.3,59.995937622479246,
1,37,experiment,01,standing,noswitch,congruant,solid,square,blue,stimuli/solid-rectangle.png,stimuli/blue-square.png,1,,,,,,,,,,,,,,,,,,,,,,,,,0,0,0,0,0,0,0,0,0,36,36,36,,,,,,,,,,,,,,,,,,,,,,,,,,,,,,,,,,,,,,,,,,,,,,,,,,,,,,,,,,,,,,,,,,,,,,,,562.9658970832825,None,,,,,,,,,,,,,,,,,,,,,,,,,,,,,,,,,,,,,,,,,,561.2536780834198,None,562.2381701469421,None,1,1,0.6170170307159424,562.2381701469421,None,1000,001,01,2021_Nov_02_1605,task-switching-replication,2021.2.3,59.995937622479246,
1,38,experiment,01,standing,noswitch,congruant,solid,triangle,blue,stimuli/solid-rectangle.png,stimuli/blue-triangle.png,1,,,,,,,,,,,,,,,,,,,,,,,,,0,0,0,0,0,0,0,0,0,37,37,37,,,,,,,,,,,,,,,,,,,,,,,,,,,,,,,,,,,,,,,,,,,,,,,,,,,,,,,,,,,,,,,,,,,,,,,,565.4958350658417,None,,,,,,,,,,,,,,,,,,,,,,,,,,,,,,,,,,,,,,,,,,563.1945941448212,None,564.1780831813812,None,1,1,1.1842877864837646,564.1780831813812,None,1000,001,01,2021_Nov_02_1605,task-switching-replication,2021.2.3,59.995937622479246,
1,39,experiment,01,standing,switch,incongruant,dashed,square,blue,stimuli/dashed-rectangle.png,stimuli/blue-square.png,2,,,,,,,,,,,,,,,,,,,,,,,,,0,0,0,0,0,0,0,0,0,38,38,38,,,,,0,0,0,0,,,,,,,,,,,,,,,,,,,,,,,,,,,,,,,,,,,,,,,,,,,,,,,,,,,,,,,,,,,,,,,,,,568.2450048446656,569.297149181366,568.2764151096344,None,,,,,,,,,,,,,,,,,,,,,,,,,,,,,,,,,,,,,,565.7248940467834,None,566.709771156311,None,None,0,,566.709771156311,None,1000,001,01,2021_Nov_02_1605,task-switching-replication,2021.2.3,59.995937622479246,
1,39,experiment,01,standing,switch,incongruant,dashed,square,blue,stimuli/dashed-rectangle.png,stimuli/blue-square.png,2,,,,,,,,,,,,,,,,,,,,,,,,,0,0,0,0,0,0,0,0,0,38,38,38,,,,,,,,,,,,,,,,,,,,,,,,,,,,,,,,,,,,,,,,,,,,,,,,,,,,,,,,,,,,,,,,,,,,,,,,573.2980070114136,None,,,,,,,,,,,,,,,,,,,,,,,,,,,,,,,,,,,,,,,,,,,,,,,,,,,1000,001,01,2021_Nov_02_1605,task-switching-replication,2021.2.3,59.995937622479246,
1,40,experiment,01,standing,switch,incongruant,solid,square,blue,stimuli/solid-rectangle.png,stimuli/blue-square.png,1,,,,,,,,,,,,,,,,,,,,,,,,,0,0,0,0,0,0,0,0,0,39,39,39,,,,,,,,,,,,,,,,,,,,,,,,,,,,,,,,,,,,,,,,,,,,,,,,,,,,,,,,,,,,,,,,,,,,,,,,575.4433121681213,None,,,,,,,,,,,,,,,,,,,,,,,,,,,,,,,,,,,,,,,,,,573.4946091175079,None,574.4792339801788,None,1,1,0.8613641262054443,574.4792339801788,None,1000,001,01,2021_Nov_02_1605,task-switching-replication,2021.2.3,59.995937622479246,
1,41,experiment,01,standing,switch,congruant,dashed,triangle,blue,stimuli/dashed-rectangle.png,stimuli/blue-triangle.png,1,,,,,,,,,,,,,,,,,,,,,,,,,0,0,0,0,0,0,0,0,0,40,40,40,,,,,,,,,,,,,,,,,,,,,,,,,,,,,,,,,,,,,,,,,,,,,,,,,,,,,,,,,,,,,,,,,,,,,,,,577.3840560913086,None,,,,,,,,,,,,,,,,,,,,,,,,,,,,,,,,,,,,,,,,,,575.6722509860992,None,576.6563470363617,None,1,1,0.6038379669189453,576.6563470363617,None,1000,001,01,2021_Nov_02_1605,task-switching-replication,2021.2.3,59.995937622479246,
1,42,experiment,01,standing,noswitch,congruant,dashed,triangle,yellow,stimuli/dashed-rectangle.png,stimuli/yellow-triangle.png,1,,,,,,,,,,,,,,,,,,,,,,,,,0,0,0,0,0,0,0,0,0,41,41,41,,,,,,,,,,,,,,,,,,,,,,,,,,,,,,,,,,,,,,,,,,,,,,,,,,,,,,,,,,,,,,,,,,,,,,,,579.8565781116486,None,,,,,,,,,,,,,,,,,,,,,,,,,,,,,,,,,,,,,,,,,,577.6126461029053,None,578.5966880321503,None,1,1,1.1505091190338135,578.5966880321503,None,1000,001,01,2021_Nov_02_1605,task-switching-replication,2021.2.3,59.995937622479246,
1,43,experiment,01,standing,noswitch,congruant,dashed,triangle,yellow,stimuli/dashed-rectangle.png,stimuli/yellow-triangle.png,1,,,,,,,,,,,,,,,,,,,,,,,,,0,0,0,0,0,0,0,0,0,42,42,42,,,,,,,,,,,,,,,,,,,,,,,,,,,,,,,,,,,,,,,,,,,,,,,,,,,,,,,,,,,,,,,,,,,,,,,,582.2100901603699,None,,,,,,,,,,,,,,,,,,,,,,,,,,,,,,,,,,,,,,,,,,580.0854461193085,None,581.069571018219,None,1,1,1.011749029159546,581.069571018219,None,1000,001,01,2021_Nov_02_1605,task-switching-replication,2021.2.3,59.995937622479246,
1,44,experiment,01,standing,switch,incongruant,solid,square,yellow,stimuli/solid-rectangle.png,stimuli/yellow-square.png,2,,,,,,,,,,,,,,,,,,,,,,,,,0,0,0,0,0,0,0,0,0,43,43,43,0,0,0,0,,,,,,,,,,,,,,,,,,,,,,,,,,,,,,,,,,,,,,,,,,,,,,,,,,,,,,,,,,,,,,,,,,,,,,,,,,584.8906006813049,585.9423711299896,584.9231181144714,None,,,,,,,,,,,,,,,,,,,,,,,,,,,,,,,,,,582.4387710094452,None,583.4232091903687,None,1,0,1.366973876953125,583.4232091903687,None,1000,001,01,2021_Nov_02_1605,task-switching-replication,2021.2.3,59.995937622479246,
1,44,experiment,01,standing,switch,incongruant,solid,square,yellow,stimuli/solid-rectangle.png,stimuli/yellow-square.png,2,,,,,,,,,,,,,,,,,,,,,,,,,0,0,0,0,0,0,0,0,0,43,43,43,,,,,,,,,,,,,,,,,,,,,,,,,,,,,,,,,,,,,,,,,,,,,,,,,,,,,,,,,,,,,,,,,,,,,,,,589.9421939849854,None,,,,,,,,,,,,,,,,,,,,,,,,,,,,,,,,,,,,,,,,,,,,,,,,,,,1000,001,01,2021_Nov_02_1605,task-switching-replication,2021.2.3,59.995937622479246,
1,45,experiment,01,standing,switch,incongruant,dashed,triangle,blue,stimuli/dashed-rectangle.png,stimuli/blue-triangle.png,1,,,,,,,,,,,,,,,,,,,,,,,,,0,0,0,0,0,0,0,0,0,44,44,44,,,,,,,,,,,,,,,,,,,,,,,,,,,,,,,,,,,,,,,,,,,,,,,,,,,,,,,,,,,,,,,,,,,,,,,,592.1453061103821,None,,,,,,,,,,,,,,,,,,,,,,,,,,,,,,,,,,,,,,,,,,590.1389980316162,None,591.1225831508636,None,1,1,0.9025869369506836,591.1225831508636,None,1000,001,01,2021_Nov_02_1605,task-switching-replication,2021.2.3,59.995937622479246,
1,46,experiment,01,standing,switch,incongruant,solid,triangle,yellow,stimuli/solid-rectangle.png,stimuli/yellow-triangle.png,2,,,,,,,,,,,,,,,,,,,,,,,,,0,0,0,0,0,0,0,0,0,45,45,45,0,0,0,0,,,,,,,,,,,,,,,,,,,,,,,,,,,,,,,,,,,,,,,,,,,,,,,,,,,,,,,,,,,,,,,,,,,,,,,,,,594.89531083107,595.9451789855957,594.9257400035858,None,,,,,,,,,,,,,,,,,,,,,,,,,,,,,,,,,,592.3741581439972,None,593.358186006546,None,None,0,,593.358186006546,None,1000,001,01,2021_Nov_02_1605,task-switching-replication,2021.2.3,59.995937622479246,
1,46,experiment,01,standing,switch,incongruant,solid,triangle,yellow,stimuli/solid-rectangle.png,stimuli/yellow-triangle.png,2,,,,,,,,,,,,,,,,,,,,,,,,,0,0,0,0,0,0,0,0,0,45,45,45,,,,,,,,,,,,,,,,,,,,,,,,,,,,,,,,,,,,,,,,,,,,,,,,,,,,,,,,,,,,,,,,,,,,,,,,599.9534111022949,None,,,,,,,,,,,,,,,,,,,,,,,,,,,,,,,,,,,,,,,,,,,,,,,,,,,1000,001,01,2021_Nov_02_1605,task-switching-replication,2021.2.3,59.995937622479246,
1,47,experiment,01,standing,switch,congruant,dashed,square,yellow,stimuli/dashed-rectangle.png,stimuli/yellow-square.png,2,,,,,,,,,,,,,,,,,,,,,,,,,0,0,0,0,0,0,0,0,0,46,46,46,,,,,0,0,0,0,,,,,,,,,,,,,,,,,,,,,,,,,,,,,,,,,,,,,,,,,,,,,,,,,,,,,,,,,,,,,,,,,,602.6731628894806,603.7232050895691,602.7045981884003,None,,,,,,,,,,,,,,,,,,,,,,,,,,,,,,,,,,,,,,600.1498250961304,None,601.1350481510162,None,None,0,,601.1350481510162,None,1000,001,01,2021_Nov_02_1605,task-switching-replication,2021.2.3,59.995937622479246,
1,47,experiment,01,standing,switch,congruant,dashed,square,yellow,stimuli/dashed-rectangle.png,stimuli/yellow-square.png,2,,,,,,,,,,,,,,,,,,,,,,,,,0,0,0,0,0,0,0,0,0,46,46,46,,,,,,,,,,,,,,,,,,,,,,,,,,,,,,,,,,,,,,,,,,,,,,,,,,,,,,,,,,,,,,,,,,,,,,,,607.7254571914673,None,,,,,,,,,,,,,,,,,,,,,,,,,,,,,,,,,,,,,,,,,,,,,,,,,,,1000,001,01,2021_Nov_02_1605,task-switching-replication,2021.2.3,59.995937622479246,
1,48,experiment,01,standing,switch,congruant,solid,triangle,yellow,stimuli/solid-rectangle.png,stimuli/yellow-triangle.png,2,,,,,,,,,,,,,,,,,,,,,,,,,0,0,0,0,0,0,0,0,0,47,47,47,0,0,0,0,,,,,,,,,,,,,,,,,,,,,,,,,,,,,,,,,,,,,,,,,,,,,,,,,,,,,,,,,,,,,,,,,,,,,,,,,,609.7830004692078,610.8348340988159,609.8153359889984,None,,,,,,,,,,,,,,,,,,,,,,,,,,,,,,,,,,607.9217870235443,None,608.9060730934143,None,1,0,0.7904689311981201,608.9060730934143,None,1000,001,01,2021_Nov_02_1605,task-switching-replication,2021.2.3,59.995937622479246,
1,48,experiment,01,standing,switch,congruant,solid,triangle,yellow,stimuli/solid-rectangle.png,stimuli/yellow-triangle.png,2,,,,,,,,,,,,,,,,,,,,,,,,,0,0,0,0,0,0,0,0,0,47,47,47,,,,,,,,,,,,,,,,,,,,,,,,,,,,,,,,,,,,,,,,,,,,,,,,,,,,,,,,,,,,,,,,,,,,,,,,614.8365530967712,None,,,,,,,,,,,,,,,,,,,,,,,,,,,,,,,,,,,,,,,,,,,,,,,,,,,1000,001,01,2021_Nov_02_1605,task-switching-replication,2021.2.3,59.995937622479246,
1,49,experiment,01,standing,noswitch,incongruant,solid,triangle,blue,stimuli/solid-rectangle.png,stimuli/blue-triangle.png,1,,,,,,,,,,,,,,,,,,,,,,,,,0,0,0,0,0,0,0,0,0,48,48,48,,,,,,,,,,,,,,,,,,,,,,,,,,,,,,,,,,,,,,,,,,,,,,,,,,,,,,,,,,,,,,,,,,,,,,,,617.0999829769135,None,,,,,,,,,,,,,,,,,,,,,,,,,,,,,,,,,,,,,,,,,,615.0329790115356,None,616.0177800655365,None,1,1,0.9603888988494873,616.0177800655365,None,1000,001,01,2021_Nov_02_1605,task-switching-replication,2021.2.3,59.995937622479246,
,,,01,,,,,,,,,,,,,,,,,,,,,,,,,,,,,,,,,,0,0,0,0,0,0,0,0,,,,,,,,,,,,,,,,,,,,,,,,,,,,,,,,,,,,,,,,,,,,,,,,,,,,,,,,,,,,,,,,,,,,,,,,,,,,,,,,,,,,,,,,,,,,,,,,,,,,,,,,,,,,,,,,,,,,,,,,,,,,,,,,1000,001,01,2021_Nov_02_1605,task-switching-replication,2021.2.3,59.995937622479246,
2,1,experiment,01,standing,buffer,buffer,solid,triangle,blue,stimuli/solid-rectangle.png,stimuli/blue-triangle.png,1,,,,,,,,,,,,,,,,,,,,,,,,,0,0,0,0,1,0,1,0,0,0,0,0,,,,,,,,,,,,,,,,,,,,,,,,,,,,,,,,,,,,,,,,,,,,,,,,,,,,,,,,,,,,,,,,,,,,,,,,710.6837420463562,None,,,,,,,,,,,,,,,,,,,,,,,,,,,,,,617.3293151855469,None,2,81.22386598587036,617.3293151855469,None,698.6815030574799,None,2,10.038640022277832,698.6815030574799,None,708.8483810424805,None,709.8336009979248,None,1,1,0.691399097442627,709.8336009979248,None,1000,001,01,2021_Nov_02_1605,task-switching-replication,2021.2.3,59.995937622479246,
2,2,experiment,01,standing,noswitch,incongruant,solid,triangle,yellow,stimuli/solid-rectangle.png,stimuli/yellow-triangle.png,2,,,,,,,,,,,,,,,,,,,,,,,,,0,0,0,0,1,0,1,0,0,1,1,1,,,,,,,,,,,,,,,,,,,,,,,,,,,,,,,,,,,,,,,,,,,,,,,,,,,,,,,,,,,,,,,,,,,,,,,,712.8024771213531,None,,,,,,,,,,,,,,,,,,,,,,,,,,,,,,,,,,,,,,,,,,710.9137191772461,None,711.8983101844788,None,2,1,0.7956998348236084,711.8983101844788,None,1000,001,01,2021_Nov_02_1605,task-switching-replication,2021.2.3,59.995937622479246,
2,3,experiment,01,standing,switch,incongruant,dashed,triangle,yellow,stimuli/dashed-rectangle.png,stimuli/yellow-triangle.png,1,,,,,,,,,,,,,,,,,,,,,,,,,0,0,0,0,1,0,1,0,0,2,2,2,,,,,,,,,,,,,,,,,,,,,,,,,,,,,,,,,,,,,,,,,,,,,,,,,,,,,,,,,,,,,,,,,,,,,,,,714.9794189929962,None,,,,,,,,,,,,,,,,,,,,,,,,,,,,,,,,,,,,,,,,,,713.0313100814819,None,714.0158929824829,None,1,1,0.8494811058044434,714.0158929824829,None,1000,001,01,2021_Nov_02_1605,task-switching-replication,2021.2.3,59.995937622479246,
2,4,experiment,01,standing,switch,incongruant,solid,square,yellow,stimuli/solid-rectangle.png,stimuli/yellow-square.png,2,,,,,,,,,,,,,,,,,,,,,,,,,0,0,0,0,1,0,1,0,0,3,3,3,,,,,,,,,,,,,,,,,,,,,,,,,,,,,,,,,,,,,,,,,,,,,,,,,,,,,,,,,,,,,,,,,,,,,,,,717.0369071960449,None,,,,,,,,,,,,,,,,,,,,,,,,,,,,,,,,,,,,,,,,,,715.2078402042389,None,716.1918280124664,None,2,1,0.738523006439209,716.1918280124664,None,1000,001,01,2021_Nov_02_1605,task-switching-replication,2021.2.3,59.995937622479246,
2,5,experiment,01,standing,noswitch,incongruant,solid,square,blue,stimuli/solid-rectangle.png,stimuli/blue-square.png,1,,,,,,,,,,,,,,,,,,,,,,,,,0,0,0,0,1,0,1,0,0,4,4,4,,,,,,,,,,,,,,,,,,,,,,,,,,,,,,,,,,,,,,,,,,,,,,,,,,,,,,,,,,,,,,,,,,,,,,,,719.1569490432739,None,,,,,,,,,,,,,,,,,,,,,,,,,,,,,,,,,,,,,,,,,,717.2657861709595,None,718.250559091568,None,1,1,0.7727279663085938,718.250559091568,None,1000,001,01,2021_Nov_02_1605,task-switching-replication,2021.2.3,59.995937622479246,
2,6,experiment,01,standing,switch,incongruant,dashed,square,blue,stimuli/dashed-rectangle.png,stimuli/blue-square.png,2,,,,,,,,,,,,,,,,,,,,,,,,,0,0,0,0,1,0,1,0,0,5,5,5,,,,,,,,,,,,,,,,,,,,,,,,,,,,,,,,,,,,,,,,,,,,,,,,,,,,,,,,,,,,,,,,,,,,,,,,721.8075289726257,None,,,,,,,,,,,,,,,,,,,,,,,,,,,,,,,,,,,,,,,,,,719.385890007019,None,720.3699381351471,None,2,1,1.309079885482788,720.3699381351471,None,1000,001,01,2021_Nov_02_1605,task-switching-replication,2021.2.3,59.995937622479246,
2,7,experiment,01,standing,noswitch,congruant,dashed,square,yellow,stimuli/dashed-rectangle.png,stimuli/yellow-square.png,2,,,,,,,,,,,,,,,,,,,,,,,,,0,0,0,0,1,0,1,0,0,6,6,6,,,,,0,0,0,0,,,,,,,,,,,,,,,,,,,,,,,,,,,,,,,,,,,,,,,,,,,,,,,,,,,,,,,,,,,,,,,,,,724.5562109470368,725.6060070991516,724.58802318573,None,,,,,,,,,,,,,,,,,,,,,,,,,,,,,,,,,,,,,,722.0365359783173,None,723.0205230712891,None,None,0,,723.0205230712891,None,1000,001,01,2021_Nov_02_1605,task-switching-replication,2021.2.3,59.995937622479246,
2,7,experiment,01,standing,noswitch,congruant,dashed,square,yellow,stimuli/dashed-rectangle.png,stimuli/yellow-square.png,2,,,,,,,,,,,,,,,,,,,,,,,,,0,0,0,0,1,0,1,0,0,6,6,6,,,,,,,,,,,,,,,,,,,,,,,,,,,,,,,,,,,,,,,,,,,,,,,,,,,,,,,,,,,,,,,,,,,,,,,,729.604917049408,None,,,,,,,,,,,,,,,,,,,,,,,,,,,,,,,,,,,,,,,,,,,,,,,,,,,1000,001,01,2021_Nov_02_1605,task-switching-replication,2021.2.3,59.995937622479246,
2,8,experiment,01,standing,noswitch,congruant,dashed,square,yellow,stimuli/dashed-rectangle.png,stimuli/yellow-square.png,2,,,,,,,,,,,,,,,,,,,,,,,,,0,0,0,0,1,0,1,0,0,7,7,7,,,,,,,,,,,,,,,,,,,,,,,,,,,,,,,,,,,,,,,,,,,,,,,,,,,,,,,,,,,,,,,,,,,,,,,,732.2803959846497,None,,,,,,,,,,,,,,,,,,,,,,,,,,,,,,,,,,,,,,,,,,729.8022301197052,None,730.7863190174103,None,2,1,1.3468451499938965,730.7863190174103,None,1000,001,01,2021_Nov_02_1605,task-switching-replication,2021.2.3,59.995937622479246,
2,9,experiment,01,standing,switch,congruant,solid,square,yellow,stimuli/solid-rectangle.png,stimuli/yellow-square.png,2,,,,,,,,,,,,,,,,,,,,,,,,,0,0,0,0,1,0,1,0,0,8,8,8,,,,,,,,,,,,,,,,,,,,,,,,,,,,,,,,,,,,,,,,,,,,,,,,,,,,,,,,,,,,,,,,,,,,,,,,734.5736911296844,None,,,,,,,,,,,,,,,,,,,,,,,,,,,,,,,,,,,,,,,,,,732.5092630386353,None,733.4917562007904,None,2,1,0.9394731521606445,733.4917562007904,None,1000,001,01,2021_Nov_02_1605,task-switching-replication,2021.2.3,59.995937622479246,
2,10,experiment,01,standing,noswitch,congruant,solid,triangle,yellow,stimuli/solid-rectangle.png,stimuli/yellow-triangle.png,2,,,,,,,,,,,,,,,,,,,,,,,,,0,0,0,0,1,0,1,0,0,9,9,9,0,0,0,0,,,,,,,,,,,,,,,,,,,,,,,,,,,,,,,,,,,,,,,,,,,,,,,,,,,,,,,,,,,,,,,,,,,,,,,,,,736.6648826599121,737.715754032135,736.6964380741119,None,,,,,,,,,,,,,,,,,,,,,,,,,,,,,,,,,,734.8019871711731,None,735.7859771251678,None,1,0,0.7822368144989014,735.7859771251678,None,1000,001,01,2021_Nov_02_1605,task-switching-replication,2021.2.3,59.995937622479246,
2,10,experiment,01,standing,noswitch,congruant,solid,triangle,yellow,stimuli/solid-rectangle.png,stimuli/yellow-triangle.png,2,,,,,,,,,,,,,,,,,,,,,,,,,0,0,0,0,1,0,1,0,0,9,9,9,,,,,,,,,,,,,,,,,,,,,,,,,,,,,,,,,,,,,,,,,,,,,,,,,,,,,,,,,,,,,,,,,,,,,,,,741.7180290222168,None,,,,,,,,,,,,,,,,,,,,,,,,,,,,,,,,,,,,,,,,,,,,,,,,,,,1000,001,01,2021_Nov_02_1605,task-switching-replication,2021.2.3,59.995937622479246,
2,11,experiment,01,standing,noswitch,incongruant,solid,square,blue,stimuli/solid-rectangle.png,stimuli/blue-square.png,1,,,,,,,,,,,,,,,,,,,,,,,,,0,0,0,0,1,0,1,0,0,10,10,10,,,,,,,,,,,,,,,,,,,,,,,,,,,,,,,,,,,,,,,,,,,,,,,,,,,,,,,,,,,,,,,,,,,,,,,,743.7446041107178,None,,,,,,,,,,,,,,,,,,,,,,,,,,,,,,,,,,,,,,,,,,741.9144849777222,None,742.8987970352173,None,1,1,0.7013740539550781,742.8987970352173,None,1000,001,01,2021_Nov_02_1605,task-switching-replication,2021.2.3,59.995937622479246,
2,12,experiment,01,standing,switch,congruant,dashed,triangle,yellow,stimuli/dashed-rectangle.png,stimuli/yellow-triangle.png,1,,,,,,,,,,,,,,,,,,,,,,,,,0,0,0,0,1,0,1,0,0,11,11,11,,,,,0,0,0,0,,,,,,,,,,,,,,,,,,,,,,,,,,,,,,,,,,,,,,,,,,,,,,,,,,,,,,,,,,,,,,,,,,745.7176456451416,746.7682311534882,745.7498190402985,None,,,,,,,,,,,,,,,,,,,,,,,,,,,,,,,,,,,,,,743.9734370708466,None,744.9571859836578,None,2,0,0.6441550254821777,744.9571859836578,None,1000,001,01,2021_Nov_02_1605,task-switching-replication,2021.2.3,59.995937622479246,
2,12,experiment,01,standing,switch,congruant,dashed,triangle,yellow,stimuli/dashed-rectangle.png,stimuli/yellow-triangle.png,1,,,,,,,,,,,,,,,,,,,,,,,,,0,0,0,0,1,0,1,0,0,11,11,11,,,,,,,,,,,,,,,,,,,,,,,,,,,,,,,,,,,,,,,,,,,,,,,,,,,,,,,,,,,,,,,,,,,,,,,,750.7673830986023,None,,,,,,,,,,,,,,,,,,,,,,,,,,,,,,,,,,,,,,,,,,,,,,,,,,,1000,001,01,2021_Nov_02_1605,task-switching-replication,2021.2.3,59.995937622479246,
2,13,experiment,01,standing,noswitch,incongruant,dashed,square,blue,stimuli/dashed-rectangle.png,stimuli/blue-square.png,2,,,,,,,,,,,,,,,,,,,,,,,,,0,0,0,0,1,0,1,0,0,12,12,12,,,,,0,0,0,0,,,,,,,,,,,,,,,,,,,,,,,,,,,,,,,,,,,,,,,,,,,,,,,,,,,,,,,,,,,,,,,,,,752.8233726024628,753.8759121894836,752.856124162674,None,,,,,,,,,,,,,,,,,,,,,,,,,,,,,,,,,,,,,,750.9646151065826,None,751.9473671913147,None,1,0,0.7858319282531738,751.9473671913147,None,1000,001,01,2021_Nov_02_1605,task-switching-replication,2021.2.3,59.995937622479246,
2,13,experiment,01,standing,noswitch,incongruant,dashed,square,blue,stimuli/dashed-rectangle.png,stimuli/blue-square.png,2,,,,,,,,,,,,,,,,,,,,,,,,,0,0,0,0,1,0,1,0,0,12,12,12,,,,,,,,,,,,,,,,,,,,,,,,,,,,,,,,,,,,,,,,,,,,,,,,,,,,,,,,,,,,,,,,,,,,,,,,757.8782820701599,None,,,,,,,,,,,,,,,,,,,,,,,,,,,,,,,,,,,,,,,,,,,,,,,,,,,1000,001,01,2021_Nov_02_1605,task-switching-replication,2021.2.3,59.995937622479246,
2,14,experiment,01,standing,switch,incongruant,solid,triangle,blue,stimuli/solid-rectangle.png,stimuli/blue-triangle.png,1,,,,,,,,,,,,,,,,,,,,,,,,,0,0,0,0,1,0,1,0,0,13,13,13,0,0,0,0,,,,,,,,,,,,,,,,,,,,,,,,,,,,,,,,,,,,,,,,,,,,,,,,,,,,,,,,,,,,,,,,,,,,,,,,,,759.9384164810181,760.9906480312347,759.9711081981659,None,,,,,,,,,,,,,,,,,,,,,,,,,,,,,,,,,,758.0748910903931,None,759.0612871646881,None,2,0,0.7899289131164551,759.0612871646881,None,1000,001,01,2021_Nov_02_1605,task-switching-replication,2021.2.3,59.995937622479246,
2,14,experiment,01,standing,switch,incongruant,solid,triangle,blue,stimuli/solid-rectangle.png,stimuli/blue-triangle.png,1,,,,,,,,,,,,,,,,,,,,,,,,,0,0,0,0,1,0,1,0,0,13,13,13,,,,,,,,,,,,,,,,,,,,,,,,,,,,,,,,,,,,,,,,,,,,,,,,,,,,,,,,,,,,,,,,,,,,,,,,764.9916641712189,None,,,,,,,,,,,,,,,,,,,,,,,,,,,,,,,,,,,,,,,,,,,,,,,,,,,1000,001,01,2021_Nov_02_1605,task-switching-replication,2021.2.3,59.995937622479246,
2,15,experiment,01,standing,switch,incongruant,dashed,square,blue,stimuli/dashed-rectangle.png,stimuli/blue-square.png,2,,,,,,,,,,,,,,,,,,,,,,,,,0,0,0,0,1,0,1,0,0,14,14,14,,,,,0,0,0,0,,,,,,,,,,,,,,,,,,,,,,,,,,,,,,,,,,,,,,,,,,,,,,,,,,,,,,,,,,,,,,,,,,766.989664554596,768.0402240753174,767.0220141410828,None,,,,,,,,,,,,,,,,,,,,,,,,,,,,,,,,,,,,,,765.1882920265198,None,766.1720240116119,None,1,0,0.7471530437469482,766.1720240116119,None,1000,001,01,2021_Nov_02_1605,task-switching-replication,2021.2.3,59.995937622479246,
2,15,experiment,01,standing,switch,incongruant,dashed,square,blue,stimuli/dashed-rectangle.png,stimuli/blue-square.png,2,,,,,,,,,,,,,,,,,,,,,,,,,0,0,0,0,1,0,1,0,0,14,14,14,,,,,,,,,,,,,,,,,,,,,,,,,,,,,,,,,,,,,,,,,,,,,,,,,,,,,,,,,,,,,,,,,,,,,,,,772.0413701534271,None,,,,,,,,,,,,,,,,,,,,,,,,,,,,,,,,,,,,,,,,,,,,,,,,,,,1000,001,01,2021_Nov_02_1605,task-switching-replication,2021.2.3,59.995937622479246,
2,16,experiment,01,standing,noswitch,incongruant,dashed,triangle,blue,stimuli/dashed-rectangle.png,stimuli/blue-triangle.png,1,,,,,,,,,,,,,,,,,,,,,,,,,0,0,0,0,1,0,1,0,0,15,15,15,,,,,,,,,,,,,,,,,,,,,,,,,,,,,,,,,,,,,,,,,,,,,,,,,,,,,,,,,,,,,,,,,,,,,,,,774.0678741931915,None,,,,,,,,,,,,,,,,,,,,,,,,,,,,,,,,,,,,,,,,,,772.2381410598755,None,773.2220771312714,None,1,1,0.7219760417938232,773.2220771312714,None,1000,001,01,2021_Nov_02_1605,task-switching-replication,2021.2.3,59.995937622479246,
2,17,experiment,01,standing,switch,congruant,solid,square,blue,stimuli/solid-rectangle.png,stimuli/blue-square.png,1,,,,,,,,,,,,,,,,,,,,,,,,,0,0,0,0,1,0,1,0,0,16,16,16,,,,,,,,,,,,,,,,,,,,,,,,,,,,,,,,,,,,,,,,,,,,,,,,,,,,,,,,,,,,,,,,,,,,,,,,776.1954851150513,None,,,,,,,,,,,,,,,,,,,,,,,,,,,,,,,,,,,,,,,,,,774.2966051101685,None,775.2880101203918,None,1,1,0.7490808963775635,775.2880101203918,None,1000,001,01,2021_Nov_02_1605,task-switching-replication,2021.2.3,59.995937622479246,
2,18,experiment,01,standing,noswitch,incongruant,solid,triangle,yellow,stimuli/solid-rectangle.png,stimuli/yellow-triangle.png,2,,,,,,,,,,,,,,,,,,,,,,,,,0,0,0,0,1,0,1,0,0,17,17,17,0,0,0,0,,,,,,,,,,,,,,,,,,,,,,,,,,,,,,,,,,,,,,,,,,,,,,,,,,,,,,,,,,,,,,,,,,,,,,,,,,778.3434715270996,779.3938610553741,778.3762021064758,None,,,,,,,,,,,,,,,,,,,,,,,,,,,,,,,,,,776.4240200519562,None,777.4086670875549,None,1,0,0.8623199462890625,777.4086670875549,None,1000,001,01,2021_Nov_02_1605,task-switching-replication,2021.2.3,59.995937622479246,
2,18,experiment,01,standing,noswitch,incongruant,solid,triangle,yellow,stimuli/solid-rectangle.png,stimuli/yellow-triangle.png,2,,,,,,,,,,,,,,,,,,,,,,,,,0,0,0,0,1,0,1,0,0,17,17,17,,,,,,,,,,,,,,,,,,,,,,,,,,,,,,,,,,,,,,,,,,,,,,,,,,,,,,,,,,,,,,,,,,,,,,,,783.3987250328064,None,,,,,,,,,,,,,,,,,,,,,,,,,,,,,,,,,,,,,,,,,,,,,,,,,,,1000,001,01,2021_Nov_02_1605,task-switching-replication,2021.2.3,59.995937622479246,
2,19,experiment,01,standing,switch,incongruant,dashed,triangle,blue,stimuli/dashed-rectangle.png,stimuli/blue-triangle.png,1,,,,,,,,,,,,,,,,,,,,,,,,,0,0,0,0,1,0,1,0,0,18,18,18,,,,,,,,,,,,,,,,,,,,,,,,,,,,,,,,,,,,,,,,,,,,,,,,,,,,,,,,,,,,,,,,,,,,,,,,785.3674631118774,None,,,,,,,,,,,,,,,,,,,,,,,,,,,,,,,,,,,,,,,,,,783.5950701236725,None,784.5789930820465,None,1,1,0.6546218395233154,784.5789930820465,None,1000,001,01,2021_Nov_02_1605,task-switching-replication,2021.2.3,59.995937622479246,
2,20,experiment,01,standing,switch,incongruant,solid,triangle,yellow,stimuli/solid-rectangle.png,stimuli/yellow-triangle.png,2,,,,,,,,,,,,,,,,,,,,,,,,,0,0,0,0,1,0,1,0,0,19,19,19,0,0,0,0,,,,,,,,,,,,,,,,,,,,,,,,,,,,,,,,,,,,,,,,,,,,,,,,,,,,,,,,,,,,,,,,,,,,,,,,,,787.8697335720062,788.9216480255127,787.9023830890656,None,,,,,,,,,,,,,,,,,,,,,,,,,,,,,,,,,,785.5959920883179,None,786.5798561573029,None,1,0,1.1990911960601807,786.5798561573029,None,1000,001,01,2021_Nov_02_1605,task-switching-replication,2021.2.3,59.995937622479246,
2,20,experiment,01,standing,switch,incongruant,solid,triangle,yellow,stimuli/solid-rectangle.png,stimuli/yellow-triangle.png,2,,,,,,,,,,,,,,,,,,,,,,,,,0,0,0,0,1,0,1,0,0,19,19,19,,,,,,,,,,,,,,,,,,,,,,,,,,,,,,,,,,,,,,,,,,,,,,,,,,,,,,,,,,,,,,,,,,,,,,,,792.9216501712799,None,,,,,,,,,,,,,,,,,,,,,,,,,,,,,,,,,,,,,,,,,,,,,,,,,,,1000,001,01,2021_Nov_02_1605,task-switching-replication,2021.2.3,59.995937622479246,
2,21,experiment,01,standing,switch,congruant,dashed,square,blue,stimuli/dashed-rectangle.png,stimuli/blue-square.png,2,,,,,,,,,,,,,,,,,,,,,,,,,0,0,0,0,1,0,1,0,0,20,20,20,,,,,0,0,0,0,,,,,,,,,,,,,,,,,,,,,,,,,,,,,,,,,,,,,,,,,,,,,,,,,,,,,,,,,,,,,,,,,,795.0383996963501,796.0614020824432,795.070878982544,None,,,,,,,,,,,,,,,,,,,,,,,,,,,,,,,,,,,,,,793.118782043457,None,794.1026310920715,None,1,0,0.8468410968780518,794.1026310920715,None,1000,001,01,2021_Nov_02_1605,task-switching-replication,2021.2.3,59.995937622479246,
2,21,experiment,01,standing,switch,congruant,dashed,square,blue,stimuli/dashed-rectangle.png,stimuli/blue-square.png,2,,,,,,,,,,,,,,,,,,,,,,,,,0,0,0,0,1,0,1,0,0,20,20,20,,,,,,,,,,,,,,,,,,,,,,,,,,,,,,,,,,,,,,,,,,,,,,,,,,,,,,,,,,,,,,,,,,,,,,,,800.097894191742,None,,,,,,,,,,,,,,,,,,,,,,,,,,,,,,,,,,,,,,,,,,,,,,,,,,,1000,001,01,2021_Nov_02_1605,task-switching-replication,2021.2.3,59.995937622479246,
2,22,experiment,01,standing,noswitch,congruant,dashed,square,yellow,stimuli/dashed-rectangle.png,stimuli/yellow-square.png,2,,,,,,,,,,,,,,,,,,,,,,,,,0,0,0,0,1,0,1,0,0,21,21,21,,,,,0,0,0,0,,,,,,,,,,,,,,,,,,,,,,,,,,,,,,,,,,,,,,,,,,,,,,,,,,,,,,,,,,,,,,,,,,802.8147408485413,803.8654661178589,802.8461301326752,None,,,,,,,,,,,,,,,,,,,,,,,,,,,,,,,,,,,,,,800.294497013092,None,801.2790269851685,None,None,0,,801.2790269851685,None,1000,001,01,2021_Nov_02_1605,task-switching-replication,2021.2.3,59.995937622479246,
2,22,experiment,01,standing,noswitch,congruant,dashed,square,yellow,stimuli/dashed-rectangle.png,stimuli/yellow-square.png,2,,,,,,,,,,,,,,,,,,,,,,,,,0,0,0,0,1,0,1,0,0,21,21,21,,,,,,,,,,,,,,,,,,,,,,,,,,,,,,,,,,,,,,,,,,,,,,,,,,,,,,,,,,,,,,,,,,,,,,,,807.8671081066132,None,,,,,,,,,,,,,,,,,,,,,,,,,,,,,,,,,,,,,,,,,,,,,,,,,,,1000,001,01,2021_Nov_02_1605,task-switching-replication,2021.2.3,59.995937622479246,
2,23,experiment,01,standing,switch,incongruant,solid,triangle,blue,stimuli/solid-rectangle.png,stimuli/blue-triangle.png,1,,,,,,,,,,,,,,,,,,,,,,,,,0,0,0,0,1,0,1,0,0,22,22,22,,,,,,,,,,,,,,,,,,,,,,,,,,,,,,,,,,,,,,,,,,,,,,,,,,,,,,,,,,,,,,,,,,,,,,,,810.3080570697784,None,,,,,,,,,,,,,,,,,,,,,,,,,,,,,,,,,,,,,,,,,,808.064287185669,None,809.0487489700317,None,1,1,1.153311014175415,809.0487489700317,None,1000,001,01,2021_Nov_02_1605,task-switching-replication,2021.2.3,59.995937622479246,
2,24,experiment,01,standing,switch,congruant,dashed,triangle,blue,stimuli/dashed-rectangle.png,stimuli/blue-triangle.png,1,,,,,,,,,,,,,,,,,,,,,,,,,0,0,0,0,1,0,1,0,0,23,23,23,,,,,,,,,,,,,,,,,,,,,,,,,,,,,,,,,,,,,,,,,,,,,,,,,,,,,,,,,,,,,,,,,,,,,,,,812.6629061698914,None,,,,,,,,,,,,,,,,,,,,,,,,,,,,,,,,,,,,,,,,,,810.5368490219116,None,811.5217840671539,None,1,1,1.0351150035858154,811.5217840671539,None,1000,001,01,2021_Nov_02_1605,task-switching-replication,2021.2.3,59.995937622479246,
2,25,experiment,01,standing,switch,incongruant,solid,square,yellow,stimuli/solid-rectangle.png,stimuli/yellow-square.png,2,,,,,,,,,,,,,,,,,,,,,,,,,0,0,0,0,1,0,1,0,0,24,24,24,,,,,,,,,,,,,,,,,,,,,,,,,,,,,,,,,,,,,,,,,,,,,,,,,,,,,,,,,,,,,,,,,,,,,,,,815.0780251026154,None,,,,,,,,,,,,,,,,,,,,,,,,,,,,,,,,,,,,,,,,,,812.8930861949921,None,813.8779201507568,None,2,1,1.1082499027252197,813.8779201507568,None,1000,001,01,2021_Nov_02_1605,task-switching-replication,2021.2.3,59.995937622479246,
2,26,experiment,01,standing,switch,congruant,dashed,square,blue,stimuli/dashed-rectangle.png,stimuli/blue-square.png,2,,,,,,,,,,,,,,,,,,,,,,,,,0,0,0,0,1,0,1,0,0,25,25,25,,,,,0,0,0,0,,,,,,,,,,,,,,,,,,,,,,,,,,,,,,,,,,,,,,,,,,,,,,,,,,,,,,,,,,,,,,,,,,817.0508196353912,818.1022939682007,817.0832941532135,None,,,,,,,,,,,,,,,,,,,,,,,,,,,,,,,,,,,,,,815.3068010807037,None,816.2922132015228,None,1,0,0.6858541965484619,816.2922132015228,None,1000,001,01,2021_Nov_02_1605,task-switching-replication,2021.2.3,59.995937622479246,
2,26,experiment,01,standing,switch,congruant,dashed,square,blue,stimuli/dashed-rectangle.png,stimuli/blue-square.png,2,,,,,,,,,,,,,,,,,,,,,,,,,0,0,0,0,1,0,1,0,0,25,25,25,,,,,,,,,,,,,,,,,,,,,,,,,,,,,,,,,,,,,,,,,,,,,,,,,,,,,,,,,,,,,,,,,,,,,,,,822.1049439907074,None,,,,,,,,,,,,,,,,,,,,,,,,,,,,,,,,,,,,,,,,,,,,,,,,,,,1000,001,01,2021_Nov_02_1605,task-switching-replication,2021.2.3,59.995937622479246,
2,27,experiment,01,standing,noswitch,congruant,dashed,square,yellow,stimuli/dashed-rectangle.png,stimuli/yellow-square.png,2,,,,,,,,,,,,,,,,,,,,,,,,,0,0,0,0,1,0,1,0,0,26,26,26,,,,,0,0,0,0,,,,,,,,,,,,,,,,,,,,,,,,,,,,,,,,,,,,,,,,,,,,,,,,,,,,,,,,,,,,,,,,,,824.2804415225983,825.298061132431,824.3134021759033,None,,,,,,,,,,,,,,,,,,,,,,,,,,,,,,,,,,,,,,822.3013861179352,None,823.2854840755463,None,1,0,0.894373893737793,823.2854840755463,None,1000,001,01,2021_Nov_02_1605,task-switching-replication,2021.2.3,59.995937622479246,
2,27,experiment,01,standing,noswitch,congruant,dashed,square,yellow,stimuli/dashed-rectangle.png,stimuli/yellow-square.png,2,,,,,,,,,,,,,,,,,,,,,,,,,0,0,0,0,1,0,1,0,0,26,26,26,,,,,,,,,,,,,,,,,,,,,,,,,,,,,,,,,,,,,,,,,,,,,,,,,,,,,,,,,,,,,,,,,,,,,,,,829.3359551429749,None,,,,,,,,,,,,,,,,,,,,,,,,,,,,,,,,,,,,,,,,,,,,,,,,,,,1000,001,01,2021_Nov_02_1605,task-switching-replication,2021.2.3,59.995937622479246,
2,28,experiment,01,standing,switch,congruant,solid,square,yellow,stimuli/solid-rectangle.png,stimuli/yellow-square.png,2,,,,,,,,,,,,,,,,,,,,,,,,,0,0,0,0,1,0,1,0,0,27,27,27,0,0,0,0,,,,,,,,,,,,,,,,,,,,,,,,,,,,,,,,,,,,,,,,,,,,,,,,,,,,,,,,,,,,,,,,,,,,,,,,,,831.3346726894379,832.3862051963806,831.3673000335693,None,,,,,,,,,,,,,,,,,,,,,,,,,,,,,,,,,,829.5326659679413,None,830.5165209770203,None,1,0,0.7263021469116211,830.5165209770203,None,1000,001,01,2021_Nov_02_1605,task-switching-replication,2021.2.3,59.995937622479246,
2,28,experiment,01,standing,switch,congruant,solid,square,yellow,stimuli/solid-rectangle.png,stimuli/yellow-square.png,2,,,,,,,,,,,,,,,,,,,,,,,,,0,0,0,0,1,0,1,0,0,27,27,27,,,,,,,,,,,,,,,,,,,,,,,,,,,,,,,,,,,,,,,,,,,,,,,,,,,,,,,,,,,,,,,,,,,,,,,,836.3893880844116,None,,,,,,,,,,,,,,,,,,,,,,,,,,,,,,,,,,,,,,,,,,,,,,,,,,,1000,001,01,2021_Nov_02_1605,task-switching-replication,2021.2.3,59.995937622479246,
2,29,experiment,01,standing,switch,incongruant,dashed,triangle,blue,stimuli/dashed-rectangle.png,stimuli/blue-triangle.png,1,,,,,,,,,,,,,,,,,,,,,,,,,0,0,0,0,1,0,1,0,0,28,28,28,,,,,0,0,0,0,,,,,,,,,,,,,,,,,,,,,,,,,,,,,,,,,,,,,,,,,,,,,,,,,,,,,,,,,,,,,,,,,,839.1069459438324,840.1576461791992,839.1383721828461,None,,,,,,,,,,,,,,,,,,,,,,,,,,,,,,,,,,,,,,836.5860300064087,None,837.5715641975403,None,None,0,,837.5715641975403,None,1000,001,01,2021_Nov_02_1605,task-switching-replication,2021.2.3,59.995937622479246,
2,29,experiment,01,standing,switch,incongruant,dashed,triangle,blue,stimuli/dashed-rectangle.png,stimuli/blue-triangle.png,1,,,,,,,,,,,,,,,,,,,,,,,,,0,0,0,0,1,0,1,0,0,28,28,28,,,,,,,,,,,,,,,,,,,,,,,,,,,,,,,,,,,,,,,,,,,,,,,,,,,,,,,,,,,,,,,,,,,,,,,,844.1555609703064,None,,,,,,,,,,,,,,,,,,,,,,,,,,,,,,,,,,,,,,,,,,,,,,,,,,,1000,001,01,2021_Nov_02_1605,task-switching-replication,2021.2.3,59.995937622479246,
2,30,experiment,01,standing,noswitch,congruant,dashed,triangle,blue,stimuli/dashed-rectangle.png,stimuli/blue-triangle.png,1,,,,,,,,,,,,,,,,,,,,,,,,,0,0,0,0,1,0,1,0,0,29,29,29,,,,,,,,,,,,,,,,,,,,,,,,,,,,,,,,,,,,,,,,,,,,,,,,,,,,,,,,,,,,,,,,,,,,,,,,846.770879983902,None,,,,,,,,,,,,,,,,,,,,,,,,,,,,,,,,,,,,,,,,,,844.3519291877747,None,845.3346931934357,None,1,1,1.2951161861419678,845.3346931934357,None,1000,001,01,2021_Nov_02_1605,task-switching-replication,2021.2.3,59.995937622479246,
2,31,experiment,01,standing,switch,congruant,solid,triangle,blue,stimuli/solid-rectangle.png,stimuli/blue-triangle.png,1,,,,,,,,,,,,,,,,,,,,,,,,,0,0,0,0,1,0,1,0,0,30,30,30,,,,,,,,,,,,,,,,,,,,,,,,,,,,,,,,,,,,,,,,,,,,,,,,,,,,,,,,,,,,,,,,,,,,,,,,848.6504480838776,None,,,,,,,,,,,,,,,,,,,,,,,,,,,,,,,,,,,,,,,,,,846.9996790885925,None,847.9823431968689,None,1,1,0.5294511318206787,847.9823431968689,None,1000,001,01,2021_Nov_02_1605,task-switching-replication,2021.2.3,59.995937622479246,
2,32,experiment,01,standing,switch,congruant,dashed,triangle,yellow,stimuli/dashed-rectangle.png,stimuli/yellow-triangle.png,1,,,,,,,,,,,,,,,,,,,,,,,,,0,0,0,0,1,0,1,0,0,31,31,31,,,,,0,0,0,0,,,,,,,,,,,,,,,,,,,,,,,,,,,,,,,,,,,,,,,,,,,,,,,,,,,,,,,,,,,,,,,,,,850.7386934757233,851.7910921573639,850.7718620300293,None,,,,,,,,,,,,,,,,,,,,,,,,,,,,,,,,,,,,,,848.8788640499115,None,849.8622360229492,None,2,0,0.793485164642334,849.8622360229492,None,1000,001,01,2021_Nov_02_1605,task-switching-replication,2021.2.3,59.995937622479246,
2,32,experiment,01,standing,switch,congruant,dashed,triangle,yellow,stimuli/dashed-rectangle.png,stimuli/yellow-triangle.png,1,,,,,,,,,,,,,,,,,,,,,,,,,0,0,0,0,1,0,1,0,0,31,31,31,,,,,,,,,,,,,,,,,,,,,,,,,,,,,,,,,,,,,,,,,,,,,,,,,,,,,,,,,,,,,,,,,,,,,,,,855.795371055603,None,,,,,,,,,,,,,,,,,,,,,,,,,,,,,,,,,,,,,,,,,,,,,,,,,,,1000,001,01,2021_Nov_02_1605,task-switching-replication,2021.2.3,59.995937622479246,
2,33,experiment,01,standing,switch,congruant,solid,triangle,blue,stimuli/solid-rectangle.png,stimuli/blue-triangle.png,1,,,,,,,,,,,,,,,,,,,,,,,,,0,0,0,0,1,0,1,0,0,32,32,32,0,0,0,0,,,,,,,,,,,,,,,,,,,,,,,,,,,,,,,,,,,,,,,,,,,,,,,,,,,,,,,,,,,,,,,,,,,,,,,,,,858.511453819275,859.5602450370789,858.5424540042877,None,,,,,,,,,,,,,,,,,,,,,,,,,,,,,,,,,,855.9922280311584,None,856.9765791893005,None,None,0,,856.9765791893005,None,1000,001,01,2021_Nov_02_1605,task-switching-replication,2021.2.3,59.995937622479246,
2,33,experiment,01,standing,switch,congruant,solid,triangle,blue,stimuli/solid-rectangle.png,stimuli/blue-triangle.png,1,,,,,,,,,,,,,,,,,,,,,,,,,0,0,0,0,1,0,1,0,0,32,32,32,,,,,,,,,,,,,,,,,,,,,,,,,,,,,,,,,,,,,,,,,,,,,,,,,,,,,,,,,,,,,,,,,,,,,,,,863.5609819889069,None,,,,,,,,,,,,,,,,,,,,,,,,,,,,,,,,,,,,,,,,,,,,,,,,,,,1000,001,01,2021_Nov_02_1605,task-switching-replication,2021.2.3,59.995937622479246,
,,,,,,,,,,,,,,,,,,,,,,,,,,,,,,,,,,,,,,,,,,,,,,,,,,,,,,,,,,,,,,,,,,,,,,,,,,,,,,,,,,,,,,,,,,,,,,,,,,,,,,,,,,,,,,,,,,,,,,,,,,,,,,,,,,,,,,,,,,,,,,,,,,,,,,,,,,,,,,,,,,,863.7574350833893,None,864.742063999176,None,None,0,,864.742063999176,None,,,,,,,,
