blockNum,trialNum,trialType,condition,posture,switchTrialType,congruantTrialType,cueType,shapeType,shapeColor,cueFileName,stimuliFileName,correctAnswer,untimedTrials.thisRepN,untimedTrials.thisTrialN,untimedTrials.thisN,untimedTrials.thisIndex,selectSolid1.thisRepN,selectSolid1.thisTrialN,selectSolid1.thisN,selectSolid1.thisIndex,selectDashed1.thisRepN,selectDashed1.thisTrialN,selectDashed1.thisN,selectDashed1.thisIndex,timedTrials.thisRepN,timedTrials.thisTrialN,timedTrials.thisN,timedTrials.thisIndex,selectSolid2.thisRepN,selectSolid2.thisTrialN,selectSolid2.thisN,selectSolid2.thisIndex,selectDashed2.thisRepN,selectDashed2.thisTrialN,selectDashed2.thisN,selectDashed2.thisIndex,postures.thisRepN,postures.thisTrialN,postures.thisN,postures.thisIndex,blocks.thisRepN,blocks.thisTrialN,blocks.thisN,blocks.thisIndex,trials.thisRepN,trials.thisTrialN,trials.thisN,trials.thisIndex,selectSolid.thisRepN,selectSolid.thisTrialN,selectSolid.thisN,selectSolid.thisIndex,selectDashed.thisRepN,selectDashed.thisTrialN,selectDashed.thisN,selectDashed.thisIndex,text_3.started,text_3.stopped,key_resp_2.keys,key_resp_2.rt,key_resp_2.started,key_resp_2.stopped,image_4.started,image_4.stopped,key_resp_4.keys,key_resp_4.rt,key_resp_4.started,key_resp_4.stopped,image_5.started,image_5.stopped,key_resp_5.keys,key_resp_5.rt,key_resp_5.started,key_resp_5.stopped,image_6.started,image_6.stopped,key_resp_6.keys,key_resp_6.rt,key_resp_6.started,key_resp_6.stopped,image_7.started,image_7.stopped,key_resp_7.keys,key_resp_7.rt,key_resp_7.started,key_resp_7.stopped,image_8.started,image_8.stopped,key_resp_8.keys,key_resp_8.rt,key_resp_8.started,key_resp_8.stopped,image_9.started,image_9.stopped,key_resp_9.keys,key_resp_9.rt,key_resp_9.started,key_resp_9.stopped,image_10.started,image_10.stopped,key_resp_10.keys,key_resp_10.rt,key_resp_10.started,key_resp_10.stopped,image_11.started,image_11.stopped,key_resp_11.keys,key_resp_11.rt,key_resp_11.started,key_resp_11.stopped,cue_untimed_image.started,cue_untimed_image.stopped,stimuli_untimed_image.started,stimuli_untimed_image.stopped,untimed_resp.keys,untimed_resp.corr,untimed_resp.rt,untimed_resp.started,untimed_resp.stopped,text_2.started,text_2.stopped,sound_2.started,sound_2.stopped,image_3.started,image_3.stopped,sound_1.started,sound_1.stopped,image_2.started,image_2.stopped,image_12.started,image_12.stopped,key_resp_12.keys,key_resp_12.rt,key_resp_12.started,key_resp_12.stopped,image_13.started,image_13.stopped,key_resp_13.keys,key_resp_13.rt,key_resp_13.started,key_resp_13.stopped,cue_timed_image.started,cue_timed_image.stopped,stimuli_timed_image.started,stimuli_timed_image.stopped,timed_resp.keys,timed_resp.corr,timed_resp.started,timed_resp.stopped,timed_resp.rt,image.started,image.stopped,key_response.keys,key_response.rt,key_response.started,key_response.stopped,text.started,text.stopped,key_resp.keys,key_resp.rt,key_resp.started,key_resp.stopped,cue_image.started,cue_image.stopped,stimuli_image.started,stimuli_image.stopped,exp_resp.keys,exp_resp.corr,exp_resp.started,exp_resp.stopped,exp_resp.rt,participant,session,condition,date,expName,psychopyVersion,frameRate,
,,,01,,,,,,,,,,,,,,,,,,,,,,,,,,,,,,,,,,,,,,,,,,,,,,,,,,,,,,4.974274158477783,None,2,186.90274000167847,4.974274158477783,None,,,,,,,,,,,,,,,,,,,,,,,,,,,,,,,,,,,,,,,,,,,,,,,,,,,,,,,,,,,,,,,,,,,,,,,,,,,,,,,,,,,,,,,,,,,,,,,,,,,,,,,,,,,,,,1000,001,01,2021_Nov_02_1418,task-switching-replication,2021.2.3,59.9828959599571,
,,,01,,,,,,,,,,,,,,,,,,,,,,,,,,,,,,,,,,,,,,,,,,,,,,,,,,,,,,,,,,,,191.99991512298584,None,2,47.885908126831055,191.99991512298584,None,,,,,,,,,,,,,,,,,,,,,,,,,,,,,,,,,,,,,,,,,,,,,,,,,,,,,,,,,,,,,,,,,,,,,,,,,,,,,,,,,,,,,,,,,,,,,,,,,,,,,,,,1000,001,01,2021_Nov_02_1418,task-switching-replication,2021.2.3,59.9828959599571,
,,,01,,,,,,,,,,,,,,,,,,,,,,,,,,,,,,,,,,,,,,,,,,,,,,,,,,,,,,,,,,,,,,,,,,239.9822220802307,None,1,3.9876999855041504,239.9822220802307,None,,,,,,,,,,,,,,,,,,,,,,,,,,,,,,,,,,,,,,,,,,,,,,,,,,,,,,,,,,,,,,,,,,,,,,,,,,,,,,,,,,,,,,,,,,,,,,,,,,1000,001,01,2021_Nov_02_1418,task-switching-replication,2021.2.3,59.9828959599571,
,,,01,,,,,,,,,,,,,,,,,,,,,,,,,,,,,,,,,,,,,,,,,,,,,,,,,,,,,,,,,,,,,,,,,,,,,,,,244.04751300811768,None,2,1.4136459827423096,244.04751300811768,None,,,,,,,,,,,,,,,,,,,,,,,,,,,,,,,,,,,,,,,,,,,,,,,,,,,,,,,,,,,,,,,,,,,,,,,,,,,,,,,,,,,,,,,,,,,,1000,001,01,2021_Nov_02_1418,task-switching-replication,2021.2.3,59.9828959599571,
,,,01,,,,,,,,,,,,,,,,,,,,,,,,,,,,,,,,,,,,,,,,,,,,,,,,,,,,,,,,,,,,,,,,,,,,,,,,,,,,,,245.5630021095276,None,1,2.8152451515197754,245.5630021095276,None,,,,,,,,,,,,,,,,,,,,,,,,,,,,,,,,,,,,,,,,,,,,,,,,,,,,,,,,,,,,,,,,,,,,,,,,,,,,,,,,,,,,,,1000,001,01,2021_Nov_02_1418,task-switching-replication,2021.2.3,59.9828959599571,
,,,01,,,,,,,,,,,,,,,,,,,,,,,,,,,,,,,,,,,,,,,,,,,,,,,,,,,,,,,,,,,,,,,,,,,,,,,,,,,,,,,,,,,,248.47232103347778,None,1,2.7584099769592285,248.47232103347778,None,,,,,,,,,,,,,,,,,,,,,,,,,,,,,,,,,,,,,,,,,,,,,,,,,,,,,,,,,,,,,,,,,,,,,,,,,,,,,,,,1000,001,01,2021_Nov_02_1418,task-switching-replication,2021.2.3,59.9828959599571,
,,,01,,,,,,,,,,,,,,,,,,,,,,,,,,,,,,,,,,,,,,,,,,,,,,,,,,,,,,,,,,,,,,,,,,,,,,,,,,,,,,,,,,,,,,,,,,251.3197841644287,None,2,2.200289011001587,251.3197841644287,None,,,,,,,,,,,,,,,,,,,,,,,,,,,,,,,,,,,,,,,,,,,,,,,,,,,,,,,,,,,,,,,,,,,,,,,,,,1000,001,01,2021_Nov_02_1418,task-switching-replication,2021.2.3,59.9828959599571,
,,,01,,,,,,,,,,,,,,,,,,,,,,,,,,,,,,,,,,,,,,,,,,,,,,,,,,,,,,,,,,,,,,,,,,,,,,,,,,,,,,,,,,,,,,,,,,,,,,,,253.62139701843262,None,1,6.016441822052002,253.62139701843262,None,,,,,,,,,,,,,,,,,,,,,,,,,,,,,,,,,,,,,,,,,,,,,,,,,,,,,,,,,,,,,,,,,,,,1000,001,01,2021_Nov_02_1418,task-switching-replication,2021.2.3,59.9828959599571,
,,,01,,,,,,,,,,,,,,,,,,,,,,,,,,,,,,,,,,,,,,,,,,,,,,,,,,,,,,,,,,,,,,,,,,,,,,,,,,,,,,,,,,,,,,,,,,,,,,,,,,,,,,259.74977707862854,None,2,15.946138858795166,259.74977707862854,None,,,,,,,,,,,,,,,,,,,,,,,,,,,,,,,,,,,,,,,,,,,,,,,,,,,,,,,,,,,,,,1000,001,01,2021_Nov_02_1418,task-switching-replication,2021.2.3,59.9828959599571,
1,1,untimed,01,standing,buffer,buffer,solid,triangle,blue,stimuli/solid-rectangle.png,stimuli/blue-triangle.png,1,0,0,0,0,,,,,,,,,,,,,,,,,,,,,,,,,,,,,,,,,,,,,,,,,,,,,,,,,,,,,,,,,,,,,,,,,,,,,,,,,,,,,,,,,,,,,,,,,,,,,,,275.8197691440582,None,276.82079100608826,None,1,1,2.9539201259613037,276.82079100608826,None,279.88724303245544,None,,,,,,,,,,,,,,,,,,,,,,,,,,,,,,,,,,,,,,,,,,,,,,,,,,,1000,001,01,2021_Nov_02_1418,task-switching-replication,2021.2.3,59.9828959599571,
1,2,untimed,01,standing,switch,incongruant,dashed,square,blue,stimuli/dashed-rectangle.png,stimuli/blue-square.png,2,0,1,1,1,,,,,0,0,0,0,,,,,,,,,,,,,,,,,,,,,,,,,,,,,,,,,,,,,,,,,,,,,,,,,,,,,,,,,,,,,,,,,,,,,,,,,,,,,,,,,,,,,,,280.1173641681671,None,281.1178810596466,None,1,0,7.08883810043335,281.1178810596466,None,,,288.2782071828842,289.2974259853363,288.31214714050293,None,,,,,,,,,,,,,,,,,,,,,,,,,,,,,,,,,,,,,,,,,,,,,,,1000,001,01,2021_Nov_02_1418,task-switching-replication,2021.2.3,59.9828959599571,
1,2,untimed,01,standing,switch,incongruant,dashed,square,blue,stimuli/dashed-rectangle.png,stimuli/blue-square.png,2,0,1,1,1,,,,,,,,,,,,,,,,,,,,,,,,,,,,,,,,,,,,,,,,,,,,,,,,,,,,,,,,,,,,,,,,,,,,,,,,,,,,,,,,,,,,,,,,,,,,,,,,,,,,,,,,293.3311860561371,None,,,,,,,,,,,,,,,,,,,,,,,,,,,,,,,,,,,,,,,,,,,,,,,,,,,1000,001,01,2021_Nov_02_1418,task-switching-replication,2021.2.3,59.9828959599571,
1,3,untimed,01,standing,noswitch,incongruant,dashed,triangle,blue,stimuli/dashed-rectangle.png,stimuli/blue-triangle.png,1,0,2,2,2,,,,,,,,,,,,,,,,,,,,,,,,,,,,,,,,,,,,,,,,,,,,,,,,,,,,,,,,,,,,,,,,,,,,,,,,,,,,,,,,,,,,,,,,,,,,,,,293.5281970500946,None,294.5273380279541,None,1,1,2.7718307971954346,294.5273380279541,None,297.4114351272583,None,,,,,,,,,,,,,,,,,,,,,,,,,,,,,,,,,,,,,,,,,,,,,,,,,,,1000,001,01,2021_Nov_02_1418,task-switching-replication,2021.2.3,59.9828959599571,
1,4,untimed,01,standing,noswitch,incongruant,dashed,square,yellow,stimuli/dashed-rectangle.png,stimuli/yellow-square.png,2,0,3,3,3,,,,,,,,,,,,,,,,,,,,,,,,,,,,,,,,,,,,,,,,,,,,,,,,,,,,,,,,,,,,,,,,,,,,,,,,,,,,,,,,,,,,,,,,,,,,,,,297.64127016067505,None,298.64181113243103,None,2,1,1.596127986907959,298.64181113243103,None,300.39745116233826,None,,,,,,,,,,,,,,,,,,,,,,,,,,,,,,,,,,,,,,,,,,,,,,,,,,,1000,001,01,2021_Nov_02_1418,task-switching-replication,2021.2.3,59.9828959599571,
1,5,untimed,01,standing,noswitch,incongruant,dashed,triangle,yellow,stimuli/dashed-rectangle.png,stimuli/yellow-triangle.png,1,0,4,4,4,,,,,,,,,,,,,,,,,,,,,,,,,,,,,,,,,,,,,,,,,,,,,,,,,,,,,,,,,,,,,,,,,,,,,,,,,,,,,,,,,,,,,,,,,,,,,,,300.62795519828796,None,301.6274890899658,None,1,1,1.3312630653381348,301.6274890899658,None,303.08391308784485,None,,,,,,,,,,,,,,,,,,,,,,,,,,,,,,,,,,,,,,,,,,,,,,,,,,,1000,001,01,2021_Nov_02_1418,task-switching-replication,2021.2.3,59.9828959599571,
1,6,untimed,01,standing,switch,incongruant,solid,triangle,yellow,stimuli/solid-rectangle.png,stimuli/yellow-triangle.png,2,0,5,5,5,0,0,0,0,,,,,,,,,,,,,,,,,,,,,,,,,,,,,,,,,,,,,,,,,,,,,,,,,,,,,,,,,,,,,,,,,,,,,,,,,,,,,,,,,,,,,,,,,,,303.3132801055908,None,304.31333112716675,None,1,0,0.7451798915863037,304.31333112716675,None,,,,,,,305.13849914073944,306.1911060810089,305.1718940734863,None,,,,,,,,,,,,,,,,,,,,,,,,,,,,,,,,,,,,,,,,,,,1000,001,01,2021_Nov_02_1418,task-switching-replication,2021.2.3,59.9828959599571,
1,6,untimed,01,standing,switch,incongruant,solid,triangle,yellow,stimuli/solid-rectangle.png,stimuli/yellow-triangle.png,2,0,5,5,5,,,,,,,,,,,,,,,,,,,,,,,,,,,,,,,,,,,,,,,,,,,,,,,,,,,,,,,,,,,,,,,,,,,,,,,,,,,,,,,,,,,,,,,,,,,,,,,,,,,,,,,,310.1942980289459,None,,,,,,,,,,,,,,,,,,,,,,,,,,,,,,,,,,,,,,,,,,,,,,,,,,,1000,001,01,2021_Nov_02_1418,task-switching-replication,2021.2.3,59.9828959599571,
1,7,untimed,01,standing,noswitch,incongruant,solid,square,blue,stimuli/solid-rectangle.png,stimuli/blue-square.png,1,0,6,6,6,0,0,0,0,,,,,,,,,,,,,,,,,,,,,,,,,,,,,,,,,,,,,,,,,,,,,,,,,,,,,,,,,,,,,,,,,,,,,,,,,,,,,,,,,,,,,,,,,,,310.39114809036255,None,311.39009404182434,None,2,0,3.234619140625,311.39009404182434,None,,,,,,,314.7260409593582,315.7774569988251,314.7584161758423,None,,,,,,,,,,,,,,,,,,,,,,,,,,,,,,,,,,,,,,,,,,,1000,001,01,2021_Nov_02_1418,task-switching-replication,2021.2.3,59.9828959599571,
1,7,untimed,01,standing,noswitch,incongruant,solid,square,blue,stimuli/solid-rectangle.png,stimuli/blue-square.png,1,0,6,6,6,,,,,,,,,,,,,,,,,,,,,,,,,,,,,,,,,,,,,,,,,,,,,,,,,,,,,,,,,,,,,,,,,,,,,,,,,,,,,,,,,,,,,,,,,,,,,,,,,,,,,,,,319.7801740169525,None,,,,,,,,,,,,,,,,,,,,,,,,,,,,,,,,,,,,,,,,,,,,,,,,,,,1000,001,01,2021_Nov_02_1418,task-switching-replication,2021.2.3,59.9828959599571,
1,8,untimed,01,standing,noswitch,congruant,solid,triangle,blue,stimuli/solid-rectangle.png,stimuli/blue-triangle.png,1,0,7,7,7,,,,,,,,,,,,,,,,,,,,,,,,,,,,,,,,,,,,,,,,,,,,,,,,,,,,,,,,,,,,,,,,,,,,,,,,,,,,,,,,,,,,,,,,,,,,,,,319.9774169921875,None,320.9763491153717,None,1,1,1.4050440788269043,320.9763491153717,None,322.4859571456909,None,,,,,,,,,,,,,,,,,,,,,,,,,,,,,,,,,,,,,,,,,,,,,,,,,,,1000,001,01,2021_Nov_02_1418,task-switching-replication,2021.2.3,59.9828959599571,
1,9,untimed,01,standing,switch,incongruant,dashed,square,yellow,stimuli/dashed-rectangle.png,stimuli/yellow-square.png,2,0,8,8,8,,,,,0,0,0,0,,,,,,,,,,,,,,,,,,,,,,,,,,,,,,,,,,,,,,,,,,,,,,,,,,,,,,,,,,,,,,,,,,,,,,,,,,,,,,,,,,,,,,,322.7152011394501,None,323.71403217315674,None,1,0,3.793405055999756,323.71403217315674,None,,,327.5857721567154,328.6035029888153,327.61929202079773,None,,,,,,,,,,,,,,,,,,,,,,,,,,,,,,,,,,,,,,,,,,,,,,,1000,001,01,2021_Nov_02_1418,task-switching-replication,2021.2.3,59.9828959599571,
1,9,untimed,01,standing,switch,incongruant,dashed,square,yellow,stimuli/dashed-rectangle.png,stimuli/yellow-square.png,2,0,8,8,8,,,,,,,,,,,,,,,,,,,,,,,,,,,,,,,,,,,,,,,,,,,,,,,,,,,,,,,,,,,,,,,,,,,,,,,,,,,,,,,,,,,,,,,,,,,,,,,,,,,,,,,,332.6403810977936,None,,,,,,,,,,,,,,,,,,,,,,,,,,,,,,,,,,,,,,,,,,,,,,,,,,,1000,001,01,2021_Nov_02_1418,task-switching-replication,2021.2.3,59.9828959599571,
1,10,untimed,01,standing,switch,congruant,solid,square,yellow,stimuli/solid-rectangle.png,stimuli/yellow-square.png,2,0,9,9,9,,,,,,,,,,,,,,,,,,,,,,,,,,,,,,,,,,,,,,,,,,,,,,,,,,,,,,,,,,,,,,,,,,,,,,,,,,,,,,,,,,,,,,,,,,,,,,,332.8377411365509,None,333.8378920555115,None,2,1,0.5297510623931885,333.8378920555115,None,334.5168180465698,None,,,,,,,,,,,,,,,,,,,,,,,,,,,,,,,,,,,,,,,,,,,,,,,,,,,1000,001,01,2021_Nov_02_1418,task-switching-replication,2021.2.3,59.9828959599571,
1,11,untimed,01,standing,switch,incongruant,dashed,triangle,yellow,stimuli/dashed-rectangle.png,stimuli/yellow-triangle.png,1,0,10,10,10,,,,,,,,,,,,,,,,,,,,,,,,,,,,,,,,,,,,,,,,,,,,,,,,,,,,,,,,,,,,,,,,,,,,,,,,,,,,,,,,,,,,,,,,,,,,,,,334.7462410926819,None,335.7453701496124,None,1,1,1.6493589878082275,335.7453701496124,None,337.49498105049133,None,,,,,,,,,,,,,,,,,,,,,,,,,,,,,,,,,,,,,,,,,,,,,,,,,,,1000,001,01,2021_Nov_02_1418,task-switching-replication,2021.2.3,59.9828959599571,
1,12,untimed,01,standing,switch,incongruant,solid,triangle,yellow,stimuli/solid-rectangle.png,stimuli/yellow-triangle.png,2,0,11,11,11,0,0,0,0,,,,,,,,,,,,,,,,,,,,,,,,,,,,,,,,,,,,,,,,,,,,,,,,,,,,,,,,,,,,,,,,,,,,,,,,,,,,,,,,,,,,,,,,,,,337.7237010002136,None,338.7244801521301,None,1,0,1.7879638671875,338.7244801521301,None,,,,,,,340.6258281469345,341.6777160167694,340.6591281890869,None,,,,,,,,,,,,,,,,,,,,,,,,,,,,,,,,,,,,,,,,,,,1000,001,01,2021_Nov_02_1418,task-switching-replication,2021.2.3,59.9828959599571,
1,12,untimed,01,standing,switch,incongruant,solid,triangle,yellow,stimuli/solid-rectangle.png,stimuli/yellow-triangle.png,2,0,11,11,11,,,,,,,,,,,,,,,,,,,,,,,,,,,,,,,,,,,,,,,,,,,,,,,,,,,,,,,,,,,,,,,,,,,,,,,,,,,,,,,,,,,,,,,,,,,,,,,,,,,,,,,,345.67879915237427,None,,,,,,,,,,,,,,,,,,,,,,,,,,,,,,,,,,,,,,,,,,,,,,,,,,,1000,001,01,2021_Nov_02_1418,task-switching-replication,2021.2.3,59.9828959599571,
,,,01,,,,,,,,,,,,,,,,,,,,,,,,,,,,,,,,,,,,,,,,,,,,,,,,,,,,,,,,,,,,,,,,,,,,,,,,,,,,,,,,,,,,,,,,,,,,,,,,,,,,,,,,,,,,,,,,,,,,,,,,,,,,,,,345.8760440349579,None,2,9.317745923995972,345.8760440349579,None,,,,,,,,,,,,,,,,,,,,,,,,,,,,,,,,,,,,,1000,001,01,2021_Nov_02_1418,task-switching-replication,2021.2.3,59.9828959599571,
,,,01,,,,,,,,,,,,,,,,,,,,,,,,,,,,,,,,,,,,,,,,,,,,,,,,,,,,,,,,,,,,,,,,,,,,,,,,,,,,,,,,,,,,,,,,,,,,,,,,,,,,,,,,,,,,,,,,,,,,,,,,,,,,,,,,,,,,,355.2849621772766,None,2,16.098712921142578,355.2849621772766,None,,,,,,,,,,,,,,,,,,,,,,,,,,,,,,,1000,001,01,2021_Nov_02_1418,task-switching-replication,2021.2.3,59.9828959599571,
1,1,timed,01,standing,buffer,buffer,solid,triangle,yellow,stimuli/solid-rectangle.png,stimuli/yellow-triangle.png,2,,,,,,,,,,,,,0,0,0,0,0,0,0,0,,,,,,,,,,,,,,,,,,,,,,,,,,,,,,,,,,,,,,,,,,,,,,,,,,,,,,,,,,,,,,,,,,,,,,,,,,,,,,,,,,,,,,,,,,,,,,374.05004358291626,375.10003900527954,374.08177304267883,None,,,,,,,,,,,,,371.5315041542053,None,372.5157961845398,None,None,0,372.5157961845398,None,,,,,,,,,,,,,,,,,,,,,,,1000,001,01,2021_Nov_02_1418,task-switching-replication,2021.2.3,59.9828959599571,
1,1,timed,01,standing,buffer,buffer,solid,triangle,yellow,stimuli/solid-rectangle.png,stimuli/yellow-triangle.png,2,,,,,,,,,,,,,0,0,0,0,,,,,,,,,,,,,,,,,,,,,,,,,,,,,,,,,,,,,,,,,,,,,,,,,,,,,,,,,,,,,,,,,,,,,,,,,,,,,,,,,,,,,,,,,,,,379.1042950153351,None,,,,,,,,,,,,,,,,,,,,,,,,,,,,,,,,,,,,,,,,,,,,,,,,,,,1000,001,01,2021_Nov_02_1418,task-switching-replication,2021.2.3,59.9828959599571,
1,2,timed,01,standing,switch,congruant,dashed,square,blue,stimuli/dashed-rectangle.png,stimuli/blue-square.png,2,,,,,,,,,,,,,0,1,1,1,,,,,0,0,0,0,,,,,,,,,,,,,,,,,,,,,,,,,,,,,,,,,,,,,,,,,,,,,,,,,,,,,,,,,,,,,,,,,,,,,,,,,,,,,,,,,,,,,,381.16803801059723,382.18617820739746,381.2019181251526,None,,,,,,,,,,,,,,,,,379.30166816711426,None,380.2915940284729,None,1,0,380.2915940284729,None,0.8009228706359863,,,,,,,,,,,,,,,,,,,,,,1000,001,01,2021_Nov_02_1418,task-switching-replication,2021.2.3,59.9828959599571,
1,2,timed,01,standing,switch,congruant,dashed,square,blue,stimuli/dashed-rectangle.png,stimuli/blue-square.png,2,,,,,,,,,,,,,0,1,1,1,,,,,,,,,,,,,,,,,,,,,,,,,,,,,,,,,,,,,,,,,,,,,,,,,,,,,,,,,,,,,,,,,,,,,,,,,,,,,,,,,,,,,,,,,,,,386.22322702407837,None,,,,,,,,,,,,,,,,,,,,,,,,,,,,,,,,,,,,,,,,,,,,,,,,,,,1000,001,01,2021_Nov_02_1418,task-switching-replication,2021.2.3,59.9828959599571,
1,3,timed,01,standing,noswitch,incongruant,dashed,triangle,blue,stimuli/dashed-rectangle.png,stimuli/blue-triangle.png,1,,,,,,,,,,,,,0,2,2,2,,,,,,,,,,,,,,,,,,,,,,,,,,,,,,,,,,,,,,,,,,,,,,,,,,,,,,,,,,,,,,,,,,,,,,,,,,,,,,,,,,,,,,,,,,,,387.89379811286926,None,,,,,,,,,,,,,,,,,,,,,386.41970801353455,None,387.4026081562042,None,1,1,387.4026081562042,None,0.3896768093109131,,,,,,,,,,,,,,,,,,,,,,1000,001,01,2021_Nov_02_1418,task-switching-replication,2021.2.3,59.9828959599571,
1,4,timed,01,standing,noswitch,congruant,dashed,triangle,yellow,stimuli/dashed-rectangle.png,stimuli/yellow-triangle.png,1,,,,,,,,,,,,,0,3,3,3,,,,,,,,,,,,,,,,,,,,,,,,,,,,,,,,,,,,,,,,,,,,,,,,,,,,,,,,,,,,,,,,,,,,,,,,,,,,,,,,,,,,,,,,,,,,389.8915591239929,None,,,,,,,,,,,,,,,,,,,,,388.12242698669434,None,389.1055500507355,None,1,1,389.1055500507355,None,0.6887609958648682,,,,,,,,,,,,,,,,,,,,,,1000,001,01,2021_Nov_02_1418,task-switching-replication,2021.2.3,59.9828959599571,
1,5,timed,01,standing,noswitch,incongruant,dashed,square,yellow,stimuli/dashed-rectangle.png,stimuli/yellow-square.png,2,,,,,,,,,,,,,0,4,4,4,,,,,,,,,,,,,,,,,,,,,,,,,,,,,,,,,,,,,,,,,,,,,,,,,,,,,,,,,,,,,,,,,,,,,,,,,,,,,,,,,,,,,,,,,,,,392.01058316230774,None,,,,,,,,,,,,,,,,,,,,,390.12034606933594,None,391.1038091182709,None,2,1,391.1038091182709,None,0.7631289958953857,,,,,,,,,,,,,,,,,,,,,,1000,001,01,2021_Nov_02_1418,task-switching-replication,2021.2.3,59.9828959599571,
1,6,timed,01,standing,noswitch,incongruant,dashed,triangle,yellow,stimuli/dashed-rectangle.png,stimuli/yellow-triangle.png,1,,,,,,,,,,,,,0,5,5,5,,,,,,,,,,,,,,,,,,,,,,,,,,,,,,,,,,,,,,,,,,,,,,,,,,,,,,,,,,,,,,,,,,,,,,,,,,,,,,,,,,,,,,,,,,,,393.83371806144714,None,,,,,,,,,,,,,,,,,,,,,392.2394771575928,None,393.2239511013031,None,1,1,393.2239511013031,None,0.4563710689544678,,,,,,,,,,,,,,,,,,,,,,1000,001,01,2021_Nov_02_1418,task-switching-replication,2021.2.3,59.9828959599571,
1,7,timed,01,standing,switch,congruant,solid,square,blue,stimuli/solid-rectangle.png,stimuli/blue-square.png,1,,,,,,,,,,,,,0,6,6,6,0,0,0,0,,,,,,,,,,,,,,,,,,,,,,,,,,,,,,,,,,,,,,,,,,,,,,,,,,,,,,,,,,,,,,,,,,,,,,,,,,,,,,,,,,,,,,,,,,,,,,396.5814907550812,397.6315929889679,396.61275911331177,None,,,,,,,,,,,,,394.06305599212646,None,395.0473940372467,None,None,0,395.0473940372467,None,,,,,,,,,,,,,,,,,,,,,,,1000,001,01,2021_Nov_02_1418,task-switching-replication,2021.2.3,59.9828959599571,
1,7,timed,01,standing,switch,congruant,solid,square,blue,stimuli/solid-rectangle.png,stimuli/blue-square.png,1,,,,,,,,,,,,,0,6,6,6,,,,,,,,,,,,,,,,,,,,,,,,,,,,,,,,,,,,,,,,,,,,,,,,,,,,,,,,,,,,,,,,,,,,,,,,,,,,,,,,,,,,,,,,,,,,401.6316421031952,None,,,,,,,,,,,,,,,,,,,,,,,,,,,,,,,,,,,,,,,,,,,,,,,,,,,1000,001,01,2021_Nov_02_1418,task-switching-replication,2021.2.3,59.9828959599571,
1,8,timed,01,standing,noswitch,congruant,solid,square,blue,stimuli/solid-rectangle.png,stimuli/blue-square.png,1,,,,,,,,,,,,,0,7,7,7,,,,,,,,,,,,,,,,,,,,,,,,,,,,,,,,,,,,,,,,,,,,,,,,,,,,,,,,,,,,,,,,,,,,,,,,,,,,,,,,,,,,,,,,,,,,403.48003005981445,None,,,,,,,,,,,,,,,,,,,,,401.82817101478577,None,402.81134510040283,None,1,1,402.81134510040283,None,0.5229480266571045,,,,,,,,,,,,,,,,,,,,,,1000,001,01,2021_Nov_02_1418,task-switching-replication,2021.2.3,59.9828959599571,
1,9,timed,01,standing,switch,incongruant,dashed,square,yellow,stimuli/dashed-rectangle.png,stimuli/yellow-square.png,2,,,,,,,,,,,,,0,8,8,8,,,,,,,,,,,,,,,,,,,,,,,,,,,,,,,,,,,,,,,,,,,,,,,,,,,,,,,,,,,,,,,,,,,,,,,,,,,,,,,,,,,,,,,,,,,,405.4227910041809,None,,,,,,,,,,,,,,,,,,,,,403.7093172073364,None,404.69369411468506,None,2,1,404.69369411468506,None,0.5952639579772949,,,,,,,,,,,,,,,,,,,,,,1000,001,01,2021_Nov_02_1418,task-switching-replication,2021.2.3,59.9828959599571,
1,10,timed,01,standing,noswitch,incongruant,dashed,triangle,yellow,stimuli/dashed-rectangle.png,stimuli/yellow-triangle.png,1,,,,,,,,,,,,,0,9,9,9,,,,,,,,,,,,,,,,,,,,,,,,,,,,,,,,,,,,,,,,,,,,,,,,,,,,,,,,,,,,,,,,,,,,,,,,,,,,,,,,,,,,,,,,,,,,407.60256719589233,None,,,,,,,,,,,,,,,,,,,,,405.65154004096985,None,406.63469910621643,None,1,1,406.63469910621643,None,0.8445210456848145,,,,,,,,,,,,,,,,,,,,,,1000,001,01,2021_Nov_02_1418,task-switching-replication,2021.2.3,59.9828959599571,
1,11,timed,01,standing,noswitch,incongruant,dashed,square,blue,stimuli/dashed-rectangle.png,stimuli/blue-square.png,2,,,,,,,,,,,,,0,10,10,10,,,,,0,0,0,0,,,,,,,,,,,,,,,,,,,,,,,,,,,,,,,,,,,,,,,,,,,,,,,,,,,,,,,,,,,,,,,,,,,,,,,,,,,,,,,,,,,,,,410.34132397174835,411.3929011821747,410.37512016296387,None,,,,,,,,,,,,,,,,,407.8315041065216,None,408.8156840801239,None,1,0,408.8156840801239,None,1.4125690460205078,,,,,,,,,,,,,,,,,,,,,,1000,001,01,2021_Nov_02_1418,task-switching-replication,2021.2.3,59.9828959599571,
1,11,timed,01,standing,noswitch,incongruant,dashed,square,blue,stimuli/dashed-rectangle.png,stimuli/blue-square.png,2,,,,,,,,,,,,,0,10,10,10,,,,,,,,,,,,,,,,,,,,,,,,,,,,,,,,,,,,,,,,,,,,,,,,,,,,,,,,,,,,,,,,,,,,,,,,,,,,,,,,,,,,,,,,,,,,415.3920500278473,None,,,,,,,,,,,,,,,,,,,,,,,,,,,,,,,,,,,,,,,,,,,,,,,,,,,1000,001,01,2021_Nov_02_1418,task-switching-replication,2021.2.3,59.9828959599571,
1,12,timed,01,standing,switch,congruant,solid,square,yellow,stimuli/solid-rectangle.png,stimuli/yellow-square.png,2,,,,,,,,,,,,,0,11,11,11,,,,,,,,,,,,,,,,,,,,,,,,,,,,,,,,,,,,,,,,,,,,,,,,,,,,,,,,,,,,,,,,,,,,,,,,,,,,,,,,,,,,,,,,,,,,417.5368139743805,None,,,,,,,,,,,,,,,,,,,,,415.5888102054596,None,416.5733370780945,None,2,1,416.5733370780945,None,0.8650710582733154,,,,,,,,,,,,,,,,,,,,,,1000,001,01,2021_Nov_02_1418,task-switching-replication,2021.2.3,59.9828959599571,
1,13,timed,01,standing,noswitch,congruant,solid,triangle,yellow,stimuli/solid-rectangle.png,stimuli/yellow-triangle.png,2,,,,,,,,,,,,,0,12,12,12,,,,,,,,,,,,,,,,,,,,,,,,,,,,,,,,,,,,,,,,,,,,,,,,,,,,,,,,,,,,,,,,,,,,,,,,,,,,,,,,,,,,,,,,,,,,419.654666185379,None,,,,,,,,,,,,,,,,,,,,,417.7659261226654,None,418.74993801116943,None,2,1,418.74993801116943,None,0.7964169979095459,,,,,,,,,,,,,,,,,,,,,,1000,001,01,2021_Nov_02_1418,task-switching-replication,2021.2.3,59.9828959599571,
1,14,timed,01,standing,switch,incongruant,dashed,triangle,blue,stimuli/dashed-rectangle.png,stimuli/blue-triangle.png,1,,,,,,,,,,,,,0,13,13,13,,,,,0,0,0,0,,,,,,,,,,,,,,,,,,,,,,,,,,,,,,,,,,,,,,,,,,,,,,,,,,,,,,,,,,,,,,,,,,,,,,,,,,,,,,,,,,,,,,422.2751821279526,423.2927680015564,422.30890703201294,None,,,,,,,,,,,,,,,,,419.8834660053253,None,420.8669331073761,None,2,0,420.8669331073761,None,1.3095929622650146,,,,,,,,,,,,,,,,,,,,,,1000,001,01,2021_Nov_02_1418,task-switching-replication,2021.2.3,59.9828959599571,
1,14,timed,01,standing,switch,incongruant,dashed,triangle,blue,stimuli/dashed-rectangle.png,stimuli/blue-triangle.png,1,,,,,,,,,,,,,0,13,13,13,,,,,,,,,,,,,,,,,,,,,,,,,,,,,,,,,,,,,,,,,,,,,,,,,,,,,,,,,,,,,,,,,,,,,,,,,,,,,,,,,,,,,,,,,,,,427.3308651447296,None,,,,,,,,,,,,,,,,,,,,,,,,,,,,,,,,,,,,,,,,,,,,,,,,,,,1000,001,01,2021_Nov_02_1418,task-switching-replication,2021.2.3,59.9828959599571,
1,15,timed,01,standing,switch,congruant,solid,triangle,blue,stimuli/solid-rectangle.png,stimuli/blue-triangle.png,1,,,,,,,,,,,,,0,14,14,14,,,,,,,,,,,,,,,,,,,,,,,,,,,,,,,,,,,,,,,,,,,,,,,,,,,,,,,,,,,,,,,,,,,,,,,,,,,,,,,,,,,,,,,,,,,,430.0667791366577,None,,,,,,,,,,,,,,,,,,,,,427.5277020931244,None,428.51234102249146,None,1,1,428.51234102249146,None,1.4425849914550781,,,,,,,,,,,,,,,,,,,,,,1000,001,01,2021_Nov_02_1418,task-switching-replication,2021.2.3,59.9828959599571,
1,16,timed,01,standing,noswitch,congruant,solid,square,blue,stimuli/solid-rectangle.png,stimuli/blue-square.png,1,,,,,,,,,,,,,0,15,15,15,0,0,0,0,,,,,,,,,,,,,,,,,,,,,,,,,,,,,,,,,,,,,,,,,,,,,,,,,,,,,,,,,,,,,,,,,,,,,,,,,,,,,,,,,,,,,,,,,,,,,,432.2151530981064,433.26732420921326,432.2483651638031,None,,,,,,,,,,,,,430.2960431575775,None,431.2799479961395,None,2,0,431.2799479961395,None,0.8637378215789795,,,,,,,,,,,,,,,,,,,,,,1000,001,01,2021_Nov_02_1418,task-switching-replication,2021.2.3,59.9828959599571,
1,16,timed,01,standing,noswitch,congruant,solid,square,blue,stimuli/solid-rectangle.png,stimuli/blue-square.png,1,,,,,,,,,,,,,0,15,15,15,,,,,,,,,,,,,,,,,,,,,,,,,,,,,,,,,,,,,,,,,,,,,,,,,,,,,,,,,,,,,,,,,,,,,,,,,,,,,,,,,,,,,,,,,,,,437.2709012031555,None,,,,,,,,,,,,,,,,,,,,,,,,,,,,,,,,,,,,,,,,,,,,,,,,,,,1000,001,01,2021_Nov_02_1418,task-switching-replication,2021.2.3,59.9828959599571,
1,17,timed,01,standing,noswitch,congruant,solid,triangle,blue,stimuli/solid-rectangle.png,stimuli/blue-triangle.png,1,,,,,,,,,,,,,0,16,16,16,,,,,,,,,,,,,,,,,,,,,,,,,,,,,,,,,,,,,,,,,,,,,,,,,,,,,,,,,,,,,,,,,,,,,,,,,,,,,,,,,,,,,,,,,,,,439.7720739841461,None,,,,,,,,,,,,,,,,,,,,,437.4675691127777,None,438.45206809043884,None,1,1,438.45206809043884,None,1.1961209774017334,,,,,,,,,,,,,,,,,,,,,,1000,001,01,2021_Nov_02_1418,task-switching-replication,2021.2.3,59.9828959599571,
1,18,timed,01,standing,switch,congruant,dashed,triangle,blue,stimuli/dashed-rectangle.png,stimuli/blue-triangle.png,1,,,,,,,,,,,,,0,17,17,17,,,,,0,0,0,0,,,,,,,,,,,,,,,,,,,,,,,,,,,,,,,,,,,,,,,,,,,,,,,,,,,,,,,,,,,,,,,,,,,,,,,,,,,,,,,,,,,,,,442.51933574676514,443.53945112228394,442.5554711818695,None,,,,,,,,,,,,,,,,,440.00125002861023,None,440.98494601249695,None,None,0,440.98494601249695,None,,,,,,,,,,,,,,,,,,,,,,,1000,001,01,2021_Nov_02_1418,task-switching-replication,2021.2.3,59.9828959599571,
1,18,timed,01,standing,switch,congruant,dashed,triangle,blue,stimuli/dashed-rectangle.png,stimuli/blue-triangle.png,1,,,,,,,,,,,,,0,17,17,17,,,,,,,,,,,,,,,,,,,,,,,,,,,,,,,,,,,,,,,,,,,,,,,,,,,,,,,,,,,,,,,,,,,,,,,,,,,,,,,,,,,,,,,,,,,,447.57453513145447,None,,,,,,,,,,,,,,,,,,,,,,,,,,,,,,,,,,,,,,,,,,,,,,,,,,,1000,001,01,2021_Nov_02_1418,task-switching-replication,2021.2.3,59.9828959599571,
1,19,timed,01,standing,noswitch,incongruant,dashed,square,blue,stimuli/dashed-rectangle.png,stimuli/blue-square.png,2,,,,,,,,,,,,,0,18,18,18,,,,,0,0,0,0,,,,,,,,,,,,,,,,,,,,,,,,,,,,,,,,,,,,,,,,,,,,,,,,,,,,,,,,,,,,,,,,,,,,,,,,,,,,,,,,,,,,,,450.28873658180237,451.3383960723877,450.32018303871155,None,,,,,,,,,,,,,,,,,447.77091217041016,None,448.75505805015564,None,None,0,448.75505805015564,None,,,,,,,,,,,,,,,,,,,,,,,1000,001,01,2021_Nov_02_1418,task-switching-replication,2021.2.3,59.9828959599571,
1,19,timed,01,standing,noswitch,incongruant,dashed,square,blue,stimuli/dashed-rectangle.png,stimuli/blue-square.png,2,,,,,,,,,,,,,0,18,18,18,,,,,,,,,,,,,,,,,,,,,,,,,,,,,,,,,,,,,,,,,,,,,,,,,,,,,,,,,,,,,,,,,,,,,,,,,,,,,,,,,,,,,,,,,,,,455.3391990661621,None,,,,,,,,,,,,,,,,,,,,,,,,,,,,,,,,,,,,,,,,,,,,,,,,,,,1000,001,01,2021_Nov_02_1418,task-switching-replication,2021.2.3,59.9828959599571,
1,20,timed,01,standing,noswitch,congruant,dashed,square,yellow,stimuli/dashed-rectangle.png,stimuli/yellow-square.png,2,,,,,,,,,,,,,0,19,19,19,,,,,,,,,,,,,,,,,,,,,,,,,,,,,,,,,,,,,,,,,,,,,,,,,,,,,,,,,,,,,,,,,,,,,,,,,,,,,,,,,,,,,,,,,,,,457.77865719795227,None,,,,,,,,,,,,,,,,,,,,,455.5358850955963,None,456.519602060318,None,2,1,456.519602060318,None,1.1227200031280518,,,,,,,,,,,,,,,,,,,,,,1000,001,01,2021_Nov_02_1418,task-switching-replication,2021.2.3,59.9828959599571,
1,21,timed,01,standing,switch,incongruant,solid,triangle,blue,stimuli/solid-rectangle.png,stimuli/blue-triangle.png,1,,,,,,,,,,,,,0,20,20,20,0,0,0,0,,,,,,,,,,,,,,,,,,,,,,,,,,,,,,,,,,,,,,,,,,,,,,,,,,,,,,,,,,,,,,,,,,,,,,,,,,,,,,,,,,,,,,,,,,,,,,460.51635110378265,461.53519010543823,460.55129504203796,None,,,,,,,,,,,,,458.0078501701355,None,458.99188709259033,None,2,0,458.99188709259033,None,1.4603290557861328,,,,,,,,,,,,,,,,,,,,,,1000,001,01,2021_Nov_02_1418,task-switching-replication,2021.2.3,59.9828959599571,
1,21,timed,01,standing,switch,incongruant,solid,triangle,blue,stimuli/solid-rectangle.png,stimuli/blue-triangle.png,1,,,,,,,,,,,,,0,20,20,20,,,,,,,,,,,,,,,,,,,,,,,,,,,,,,,,,,,,,,,,,,,,,,,,,,,,,,,,,,,,,,,,,,,,,,,,,,,,,,,,,,,,,,,,,,,,465.57210397720337,None,,,,,,,,,,,,,,,,,,,,,,,,,,,,,,,,,,,,,,,,,,,,,,,,,,,1000,001,01,2021_Nov_02_1418,task-switching-replication,2021.2.3,59.9828959599571,
1,22,timed,01,standing,noswitch,incongruant,solid,square,yellow,stimuli/solid-rectangle.png,stimuli/yellow-square.png,2,,,,,,,,,,,,,0,21,21,21,0,0,0,0,,,,,,,,,,,,,,,,,,,,,,,,,,,,,,,,,,,,,,,,,,,,,,,,,,,,,,,,,,,,,,,,,,,,,,,,,,,,,,,,,,,,,,,,,,,,,,467.9850369691849,469.03643107414246,468.0172770023346,None,,,,,,,,,,,,,465.7686791419983,None,466.7513771057129,None,1,0,466.7513771057129,None,1.1280219554901123,,,,,,,,,,,,,,,,,,,,,,1000,001,01,2021_Nov_02_1418,task-switching-replication,2021.2.3,59.9828959599571,
1,22,timed,01,standing,noswitch,incongruant,solid,square,yellow,stimuli/solid-rectangle.png,stimuli/yellow-square.png,2,,,,,,,,,,,,,0,21,21,21,,,,,,,,,,,,,,,,,,,,,,,,,,,,,,,,,,,,,,,,,,,,,,,,,,,,,,,,,,,,,,,,,,,,,,,,,,,,,,,,,,,,,,,,,,,,473.03926706314087,None,,,,,,,,,,,,,,,,,,,,,,,,,,,,,,,,,,,,,,,,,,,,,,,,,,,1000,001,01,2021_Nov_02_1418,task-switching-replication,2021.2.3,59.9828959599571,
1,23,timed,01,standing,noswitch,congruant,solid,triangle,yellow,stimuli/solid-rectangle.png,stimuli/yellow-triangle.png,2,,,,,,,,,,,,,0,22,22,22,0,0,0,0,,,,,,,,,,,,,,,,,,,,,,,,,,,,,,,,,,,,,,,,,,,,,,,,,,,,,,,,,,,,,,,,,,,,,,,,,,,,,,,,,,,,,,,,,,,,,,475.75345277786255,476.7719531059265,475.78773617744446,None,,,,,,,,,,,,,473.23552799224854,None,474.21859908103943,None,None,0,474.21859908103943,None,,,,,,,,,,,,,,,,,,,,,,,1000,001,01,2021_Nov_02_1418,task-switching-replication,2021.2.3,59.9828959599571,
1,23,timed,01,standing,noswitch,congruant,solid,triangle,yellow,stimuli/solid-rectangle.png,stimuli/yellow-triangle.png,2,,,,,,,,,,,,,0,22,22,22,,,,,,,,,,,,,,,,,,,,,,,,,,,,,,,,,,,,,,,,,,,,,,,,,,,,,,,,,,,,,,,,,,,,,,,,,,,,,,,,,,,,,,,,,,,,480.80880904197693,None,,,,,,,,,,,,,,,,,,,,,,,,,,,,,,,,,,,,,,,,,,,,,,,,,,,1000,001,01,2021_Nov_02_1418,task-switching-replication,2021.2.3,59.9828959599571,
1,24,timed,01,standing,noswitch,congruant,solid,square,yellow,stimuli/solid-rectangle.png,stimuli/yellow-square.png,2,,,,,,,,,,,,,0,23,23,23,,,,,,,,,,,,,,,,,,,,,,,,,,,,,,,,,,,,,,,,,,,,,,,,,,,,,,,,,,,,,,,,,,,,,,,,,,,,,,,,,,,,,,,,,,,,483.2491111755371,None,,,,,,,,,,,,,,,,,,,,,481.00537610054016,None,481.9895451068878,None,2,1,481.9895451068878,None,1.1666359901428223,,,,,,,,,,,,,,,,,,,,,,1000,001,01,2021_Nov_02_1418,task-switching-replication,2021.2.3,59.9828959599571,
1,1,experiment,01,standing,buffer,buffer,solid,triangle,yellow,stimuli/solid-rectangle.png,stimuli/yellow-triangle.png,2,,,,,,,,,,,,,,,,,,,,,,,,,0,0,0,0,0,0,0,0,0,0,0,0,0,0,0,0,,,,,483.4946939945221,None,2,6.617583990097046,483.4946939945221,None,,,,,,,,,,,,,,,,,,,,,,,,,,,,,,,,,,,,,,,,,,,,,,,,,,,,,,,,,,,,,,,,515.5366816520691,516.5627729892731,515.5686190128326,None,,,,,,,,,,,,,,,,,,,,,,490.19419503211975,None,2,16.42787003517151,490.19419503211975,None,506.7439601421356,None,2,6.0970940589904785,506.7439601421356,None,512.9996781349182,None,513.9926800727844,None,None,0,513.9926800727844,None,,1000,001,01,2021_Nov_02_1418,task-switching-replication,2021.2.3,59.9828959599571,
1,1,experiment,01,standing,buffer,buffer,solid,triangle,yellow,stimuli/solid-rectangle.png,stimuli/yellow-triangle.png,2,,,,,,,,,,,,,,,,,,,,,,,,,0,0,0,0,0,0,0,0,0,0,0,0,,,,,,,,,,,,,,,,,,,,,,,,,,,,,,,,,,,,,,,,,,,,,,,,,,,,,,,,,,,,,,,,,,,,,,,,520.5825431346893,None,,,,,,,,,,,,,,,,,,,,,,,,,,,,,,,,,,,,,,,,,,,,,,,,,,,1000,001,01,2021_Nov_02_1418,task-switching-replication,2021.2.3,59.9828959599571,
1,2,experiment,01,standing,noswitch,congruant,solid,triangle,yellow,stimuli/solid-rectangle.png,stimuli/yellow-triangle.png,2,,,,,,,,,,,,,,,,,,,,,,,,,0,0,0,0,0,0,0,0,0,1,1,1,,,,,,,,,,,,,,,,,,,,,,,,,,,,,,,,,,,,,,,,,,,,,,,,,,,,,,,,,,,,,,,,,,,,,,,,522.3184251785278,None,,,,,,,,,,,,,,,,,,,,,,,,,,,,,,,,,,,,,,,,,,520.7810430526733,None,521.7673680782318,None,2,1,521.7673680782318,None,0.4156661033630371,1000,001,01,2021_Nov_02_1418,task-switching-replication,2021.2.3,59.9828959599571,
1,3,experiment,01,standing,noswitch,incongruant,solid,square,blue,stimuli/solid-rectangle.png,stimuli/blue-square.png,1,,,,,,,,,,,,,,,,,,,,,,,,,0,0,0,0,0,0,0,0,0,2,2,2,,,,,,,,,,,,,,,,,,,,,,,,,,,,,,,,,,,,,,,,,,,,,,,,,,,,,,,,,,,,,,,,,,,,,,,,524.4425489902496,None,,,,,,,,,,,,,,,,,,,,,,,,,,,,,,,,,,,,,,,,,,522.5476951599121,None,523.5332679748535,None,1,1,523.5332679748535,None,0.7659029960632324,1000,001,01,2021_Nov_02_1418,task-switching-replication,2021.2.3,59.9828959599571,
1,4,experiment,01,standing,switch,incongruant,dashed,square,yellow,stimuli/dashed-rectangle.png,stimuli/yellow-square.png,2,,,,,,,,,,,,,,,,,,,,,,,,,0,0,0,0,0,0,0,0,0,3,3,3,,,,,0,0,0,0,,,,,,,,,,,,,,,,,,,,,,,,,,,,,,,,,,,,,,,,,,,,,,,,,,,,,,,,,,,,,,,,,,527.1935226917267,528.212690114975,527.2253830432892,None,,,,,,,,,,,,,,,,,,,,,,,,,,,,,,,,,,,,,,524.6720039844513,None,525.6572890281677,None,None,0,525.6572890281677,None,,1000,001,01,2021_Nov_02_1418,task-switching-replication,2021.2.3,59.9828959599571,
1,4,experiment,01,standing,switch,incongruant,dashed,square,yellow,stimuli/dashed-rectangle.png,stimuli/yellow-square.png,2,,,,,,,,,,,,,,,,,,,,,,,,,0,0,0,0,0,0,0,0,0,3,3,3,,,,,,,,,,,,,,,,,,,,,,,,,,,,,,,,,,,,,,,,,,,,,,,,,,,,,,,,,,,,,,,,,,,,,,,,532.2230660915375,None,,,,,,,,,,,,,,,,,,,,,,,,,,,,,,,,,,,,,,,,,,,,,,,,,,,1000,001,01,2021_Nov_02_1418,task-switching-replication,2021.2.3,59.9828959599571,
1,5,experiment,01,standing,switch,congruant,solid,triangle,yellow,stimuli/solid-rectangle.png,stimuli/yellow-triangle.png,2,,,,,,,,,,,,,,,,,,,,,,,,,0,0,0,0,0,0,0,0,0,4,4,4,0,0,0,0,,,,,,,,,,,,,,,,,,,,,,,,,,,,,,,,,,,,,,,,,,,,,,,,,,,,,,,,,,,,,,,,,,,,,,,,,,534.6699510812759,535.6889510154724,534.7034912109375,None,,,,,,,,,,,,,,,,,,,,,,,,,,,,,,,,,,532.4520020484924,None,533.4380831718445,None,1,0,533.4380831718445,None,1.1677520275115967,1000,001,01,2021_Nov_02_1418,task-switching-replication,2021.2.3,59.9828959599571,
1,5,experiment,01,standing,switch,congruant,solid,triangle,yellow,stimuli/solid-rectangle.png,stimuli/yellow-triangle.png,2,,,,,,,,,,,,,,,,,,,,,,,,,0,0,0,0,0,0,0,0,0,4,4,4,,,,,,,,,,,,,,,,,,,,,,,,,,,,,,,,,,,,,,,,,,,,,,,,,,,,,,,,,,,,,,,,,,,,,,,,539.7013092041016,None,,,,,,,,,,,,,,,,,,,,,,,,,,,,,,,,,,,,,,,,,,,,,,,,,,,1000,001,01,2021_Nov_02_1418,task-switching-replication,2021.2.3,59.9828959599571,
1,6,experiment,01,standing,noswitch,incongruant,solid,triangle,blue,stimuli/solid-rectangle.png,stimuli/blue-triangle.png,1,,,,,,,,,,,,,,,,,,,,,,,,,0,0,0,0,0,0,0,0,0,5,5,5,0,0,0,0,,,,,,,,,,,,,,,,,,,,,,,,,,,,,,,,,,,,,,,,,,,,,,,,,,,,,,,,,,,,,,,,,,,,,,,,,,542.447705745697,543.4983031749725,542.4788570404053,None,,,,,,,,,,,,,,,,,,,,,,,,,,,,,,,,,,539.930349111557,None,540.9143240451813,None,None,0,540.9143240451813,None,,1000,001,01,2021_Nov_02_1418,task-switching-replication,2021.2.3,59.9828959599571,
1,6,experiment,01,standing,noswitch,incongruant,solid,triangle,blue,stimuli/solid-rectangle.png,stimuli/blue-triangle.png,1,,,,,,,,,,,,,,,,,,,,,,,,,0,0,0,0,0,0,0,0,0,5,5,5,,,,,,,,,,,,,,,,,,,,,,,,,,,,,,,,,,,,,,,,,,,,,,,,,,,,,,,,,,,,,,,,,,,,,,,,547.5018510818481,None,,,,,,,,,,,,,,,,,,,,,,,,,,,,,,,,,,,,,,,,,,,,,,,,,,,1000,001,01,2021_Nov_02_1418,task-switching-replication,2021.2.3,59.9828959599571,
1,7,experiment,01,standing,switch,congruant,dashed,triangle,blue,stimuli/dashed-rectangle.png,stimuli/blue-triangle.png,1,,,,,,,,,,,,,,,,,,,,,,,,,0,0,0,0,0,0,0,0,0,6,6,6,,,,,,,,,,,,,,,,,,,,,,,,,,,,,,,,,,,,,,,,,,,,,,,,,,,,,,,,,,,,,,,,,,,,,,,,549.6483581066132,None,,,,,,,,,,,,,,,,,,,,,,,,,,,,,,,,,,,,,,,,,,547.6987969875336,None,548.684051990509,None,1,1,548.684051990509,None,0.8329010009765625,1000,001,01,2021_Nov_02_1418,task-switching-replication,2021.2.3,59.9828959599571,
1,8,experiment,01,standing,noswitch,congruant,dashed,triangle,blue,stimuli/dashed-rectangle.png,stimuli/blue-triangle.png,1,,,,,,,,,,,,,,,,,,,,,,,,,0,0,0,0,0,0,0,0,0,7,7,7,,,,,,,,,,,,,,,,,,,,,,,,,,,,,,,,,,,,,,,,,,,,,,,,,,,,,,,,,,,,,,,,,,,,,,,,551.4173681735992,None,,,,,,,,,,,,,,,,,,,,,,,,,,,,,,,,,,,,,,,,,,549.8787682056427,None,550.8663051128387,None,1,1,550.8663051128387,None,0.42362403869628906,1000,001,01,2021_Nov_02_1418,task-switching-replication,2021.2.3,59.9828959599571,
1,9,experiment,01,standing,noswitch,incongruant,dashed,square,blue,stimuli/dashed-rectangle.png,stimuli/blue-square.png,2,,,,,,,,,,,,,,,,,,,,,,,,,0,0,0,0,0,0,0,0,0,8,8,8,,,,,0,0,0,0,,,,,,,,,,,,,,,,,,,,,,,,,,,,,,,,,,,,,,,,,,,,,,,,,,,,,,,,,,,,,,,,,,553.5664991140366,554.5843210220337,553.6002190113068,None,,,,,,,,,,,,,,,,,,,,,,,,,,,,,,,,,,,,,,551.6465060710907,None,552.6310160160065,None,1,0,552.6310160160065,None,0.8558001518249512,1000,001,01,2021_Nov_02_1418,task-switching-replication,2021.2.3,59.9828959599571,
1,9,experiment,01,standing,noswitch,incongruant,dashed,square,blue,stimuli/dashed-rectangle.png,stimuli/blue-square.png,2,,,,,,,,,,,,,,,,,,,,,,,,,0,0,0,0,0,0,0,0,0,8,8,8,,,,,,,,,,,,,,,,,,,,,,,,,,,,,,,,,,,,,,,,,,,,,,,,,,,,,,,,,,,,,,,,,,,,,,,,558.620334148407,None,,,,,,,,,,,,,,,,,,,,,,,,,,,,,,,,,,,,,,,,,,,,,,,,,,,1000,001,01,2021_Nov_02_1418,task-switching-replication,2021.2.3,59.9828959599571,
1,10,experiment,01,standing,noswitch,congruant,dashed,square,blue,stimuli/dashed-rectangle.png,stimuli/blue-square.png,2,,,,,,,,,,,,,,,,,,,,,,,,,0,0,0,0,0,0,0,0,0,9,9,9,,,,,,,,,,,,,,,,,,,,,,,,,,,,,,,,,,,,,,,,,,,,,,,,,,,,,,,,,,,,,,,,,,,,,,,,560.8267171382904,None,,,,,,,,,,,,,,,,,,,,,,,,,,,,,,,,,,,,,,,,,,558.8169701099396,None,559.8011050224304,None,2,1,559.8011050224304,None,0.8970510959625244,1000,001,01,2021_Nov_02_1418,task-switching-replication,2021.2.3,59.9828959599571,
1,11,experiment,01,standing,switch,congruant,solid,square,yellow,stimuli/solid-rectangle.png,stimuli/yellow-square.png,2,,,,,,,,,,,,,,,,,,,,,,,,,0,0,0,0,0,0,0,0,0,10,10,10,0,0,0,0,,,,,,,,,,,,,,,,,,,,,,,,,,,,,,,,,,,,,,,,,,,,,,,,,,,,,,,,,,,,,,,,,,,,,,,,,,563.5777447223663,564.6285490989685,563.6094450950623,None,,,,,,,,,,,,,,,,,,,,,,,,,,,,,,,,,,561.0564811229706,None,562.03986120224,None,None,0,562.03986120224,None,,1000,001,01,2021_Nov_02_1418,task-switching-replication,2021.2.3,59.9828959599571,
1,11,experiment,01,standing,switch,congruant,solid,square,yellow,stimuli/solid-rectangle.png,stimuli/yellow-square.png,2,,,,,,,,,,,,,,,,,,,,,,,,,0,0,0,0,0,0,0,0,0,10,10,10,,,,,,,,,,,,,,,,,,,,,,,,,,,,,,,,,,,,,,,,,,,,,,,,,,,,,,,,,,,,,,,,,,,,,,,,568.6321170330048,None,,,,,,,,,,,,,,,,,,,,,,,,,,,,,,,,,,,,,,,,,,,,,,,,,,,1000,001,01,2021_Nov_02_1418,task-switching-replication,2021.2.3,59.9828959599571,
1,12,experiment,01,standing,switch,incongruant,dashed,triangle,yellow,stimuli/dashed-rectangle.png,stimuli/yellow-triangle.png,1,,,,,,,,,,,,,,,,,,,,,,,,,0,0,0,0,0,0,0,0,0,11,11,11,,,,,,,,,,,,,,,,,,,,,,,,,,,,,,,,,,,,,,,,,,,,,,,,,,,,,,,,,,,,,,,,,,,,,,,,571.071622133255,None,,,,,,,,,,,,,,,,,,,,,,,,,,,,,,,,,,,,,,,,,,568.8284649848938,None,569.8133611679077,None,1,1,569.8133611679077,None,1.1533629894256592,1000,001,01,2021_Nov_02_1418,task-switching-replication,2021.2.3,59.9828959599571,
1,13,experiment,01,standing,switch,incongruant,solid,square,yellow,stimuli/solid-rectangle.png,stimuli/yellow-square.png,2,,,,,,,,,,,,,,,,,,,,,,,,,0,0,0,0,0,0,0,0,0,12,12,12,,,,,,,,,,,,,,,,,,,,,,,,,,,,,,,,,,,,,,,,,,,,,,,,,,,,,,,,,,,,,,,,,,,,,,,,573.128525018692,None,,,,,,,,,,,,,,,,,,,,,,,,,,,,,,,,,,,,,,,,,,571.3002641201019,None,572.2831900119781,None,2,1,572.2831900119781,None,0.7388691902160645,1000,001,01,2021_Nov_02_1418,task-switching-replication,2021.2.3,59.9828959599571,
1,14,experiment,01,standing,noswitch,incongruant,solid,square,blue,stimuli/solid-rectangle.png,stimuli/blue-square.png,1,,,,,,,,,,,,,,,,,,,,,,,,,0,0,0,0,0,0,0,0,0,13,13,13,0,0,0,0,,,,,,,,,,,,,,,,,,,,,,,,,,,,,,,,,,,,,,,,,,,,,,,,,,,,,,,,,,,,,,,,,,,,,,,,,,575.572595000267,576.5901570320129,575.6060559749603,None,,,,,,,,,,,,,,,,,,,,,,,,,,,,,,,,,,573.3575031757355,None,574.3420751094818,None,2,0,574.3420751094818,None,1.142982006072998,1000,001,01,2021_Nov_02_1418,task-switching-replication,2021.2.3,59.9828959599571,
1,14,experiment,01,standing,noswitch,incongruant,solid,square,blue,stimuli/solid-rectangle.png,stimuli/blue-square.png,1,,,,,,,,,,,,,,,,,,,,,,,,,0,0,0,0,0,0,0,0,0,13,13,13,,,,,,,,,,,,,,,,,,,,,,,,,,,,,,,,,,,,,,,,,,,,,,,,,,,,,,,,,,,,,,,,,,,,,,,,580.6281270980835,None,,,,,,,,,,,,,,,,,,,,,,,,,,,,,,,,,,,,,,,,,,,,,,,,,,,1000,001,01,2021_Nov_02_1418,task-switching-replication,2021.2.3,59.9828959599571,
1,15,experiment,01,standing,switch,congruant,dashed,triangle,yellow,stimuli/dashed-rectangle.png,stimuli/yellow-triangle.png,1,,,,,,,,,,,,,,,,,,,,,,,,,0,0,0,0,0,0,0,0,0,14,14,14,,,,,,,,,,,,,,,,,,,,,,,,,,,,,,,,,,,,,,,,,,,,,,,,,,,,,,,,,,,,,,,,,,,,,,,,583.1305360794067,None,,,,,,,,,,,,,,,,,,,,,,,,,,,,,,,,,,,,,,,,,,580.8246841430664,None,581.8093061447144,None,1,1,581.8093061447144,None,1.1773772239685059,1000,001,01,2021_Nov_02_1418,task-switching-replication,2021.2.3,59.9828959599571,
1,16,experiment,01,standing,noswitch,congruant,dashed,triangle,blue,stimuli/dashed-rectangle.png,stimuli/blue-triangle.png,1,,,,,,,,,,,,,,,,,,,,,,,,,0,0,0,0,0,0,0,0,0,15,15,15,,,,,0,0,0,0,,,,,,,,,,,,,,,,,,,,,,,,,,,,,,,,,,,,,,,,,,,,,,,,,,,,,,,,,,,,,,,,,,585.1613041162491,586.2139182090759,585.1943581104279,None,,,,,,,,,,,,,,,,,,,,,,,,,,,,,,,,,,,,,,583.3598861694336,None,584.3441891670227,None,2,0,584.3441891670227,None,0.7427799701690674,1000,001,01,2021_Nov_02_1418,task-switching-replication,2021.2.3,59.9828959599571,
1,16,experiment,01,standing,noswitch,congruant,dashed,triangle,blue,stimuli/dashed-rectangle.png,stimuli/blue-triangle.png,1,,,,,,,,,,,,,,,,,,,,,,,,,0,0,0,0,0,0,0,0,0,15,15,15,,,,,,,,,,,,,,,,,,,,,,,,,,,,,,,,,,,,,,,,,,,,,,,,,,,,,,,,,,,,,,,,,,,,,,,,590.2154910564423,None,,,,,,,,,,,,,,,,,,,,,,,,,,,,,,,,,,,,,,,,,,,,,,,,,,,1000,001,01,2021_Nov_02_1418,task-switching-replication,2021.2.3,59.9828959599571,
1,17,experiment,01,standing,switch,congruant,solid,square,blue,stimuli/solid-rectangle.png,stimuli/blue-square.png,1,,,,,,,,,,,,,,,,,,,,,,,,,0,0,0,0,0,0,0,0,0,16,16,16,0,0,0,0,,,,,,,,,,,,,,,,,,,,,,,,,,,,,,,,,,,,,,,,,,,,,,,,,,,,,,,,,,,,,,,,,,,,,,,,,,592.9323077201843,593.9828851222992,592.963700056076,None,,,,,,,,,,,,,,,,,,,,,,,,,,,,,,,,,,590.4124081134796,None,591.3971221446991,None,None,0,591.3971221446991,None,,1000,001,01,2021_Nov_02_1418,task-switching-replication,2021.2.3,59.9828959599571,
1,17,experiment,01,standing,switch,congruant,solid,square,blue,stimuli/solid-rectangle.png,stimuli/blue-square.png,1,,,,,,,,,,,,,,,,,,,,,,,,,0,0,0,0,0,0,0,0,0,16,16,16,,,,,,,,,,,,,,,,,,,,,,,,,,,,,,,,,,,,,,,,,,,,,,,,,,,,,,,,,,,,,,,,,,,,,,,,597.9825291633606,None,,,,,,,,,,,,,,,,,,,,,,,,,,,,,,,,,,,,,,,,,,,,,,,,,,,1000,001,01,2021_Nov_02_1418,task-switching-replication,2021.2.3,59.9828959599571,
1,18,experiment,01,standing,noswitch,congruant,solid,triangle,blue,stimuli/solid-rectangle.png,stimuli/blue-triangle.png,1,,,,,,,,,,,,,,,,,,,,,,,,,0,0,0,0,0,0,0,0,0,17,17,17,,,,,,,,,,,,,,,,,,,,,,,,,,,,,,,,,,,,,,,,,,,,,,,,,,,,,,,,,,,,,,,,,,,,,,,,599.8351612091064,None,,,,,,,,,,,,,,,,,,,,,,,,,,,,,,,,,,,,,,,,,,598.1825551986694,None,599.1663880348206,None,1,1,599.1663880348206,None,0.5173201560974121,1000,001,01,2021_Nov_02_1418,task-switching-replication,2021.2.3,59.9828959599571,
1,19,experiment,01,standing,noswitch,congruant,solid,triangle,blue,stimuli/solid-rectangle.png,stimuli/blue-triangle.png,1,,,,,,,,,,,,,,,,,,,,,,,,,0,0,0,0,0,0,0,0,0,18,18,18,,,,,,,,,,,,,,,,,,,,,,,,,,,,,,,,,,,,,,,,,,,,,,,,,,,,,,,,,,,,,,,,,,,,,,,,601.5969731807709,None,,,,,,,,,,,,,,,,,,,,,,,,,,,,,,,,,,,,,,,,,,600.0639171600342,None,601.0466480255127,None,1,1,601.0466480255127,None,0.44194602966308594,1000,001,01,2021_Nov_02_1418,task-switching-replication,2021.2.3,59.9828959599571,
1,20,experiment,01,standing,noswitch,congruant,solid,square,blue,stimuli/solid-rectangle.png,stimuli/blue-square.png,1,,,,,,,,,,,,,,,,,,,,,,,,,0,0,0,0,0,0,0,0,0,19,19,19,0,0,0,0,,,,,,,,,,,,,,,,,,,,,,,,,,,,,,,,,,,,,,,,,,,,,,,,,,,,,,,,,,,,,,,,,,,,,,,,,,604.3418076038361,605.3595039844513,604.3731601238251,None,,,,,,,,,,,,,,,,,,,,,,,,,,,,,,,,,,601.8255829811096,None,602.8085830211639,None,None,0,602.8085830211639,None,,1000,001,01,2021_Nov_02_1418,task-switching-replication,2021.2.3,59.9828959599571,
1,20,experiment,01,standing,noswitch,congruant,solid,square,blue,stimuli/solid-rectangle.png,stimuli/blue-square.png,1,,,,,,,,,,,,,,,,,,,,,,,,,0,0,0,0,0,0,0,0,0,19,19,19,,,,,,,,,,,,,,,,,,,,,,,,,,,,,,,,,,,,,,,,,,,,,,,,,,,,,,,,,,,,,,,,,,,,,,,,609.396646976471,None,,,,,,,,,,,,,,,,,,,,,,,,,,,,,,,,,,,,,,,,,,,,,,,,,,,1000,001,01,2021_Nov_02_1418,task-switching-replication,2021.2.3,59.9828959599571,
1,21,experiment,01,standing,switch,incongruant,dashed,square,yellow,stimuli/dashed-rectangle.png,stimuli/yellow-square.png,2,,,,,,,,,,,,,,,,,,,,,,,,,0,0,0,0,0,0,0,0,0,20,20,20,,,,,,,,,,,,,,,,,,,,,,,,,,,,,,,,,,,,,,,,,,,,,,,,,,,,,,,,,,,,,,,,,,,,,,,,611.1879770755768,None,,,,,,,,,,,,,,,,,,,,,,,,,,,,,,,,,,,,,,,,,,609.593456029892,None,610.5779621601105,None,2,1,610.5779621601105,None,0.46875691413879395,1000,001,01,2021_Nov_02_1418,task-switching-replication,2021.2.3,59.9828959599571,
1,22,experiment,01,standing,switch,incongruant,solid,square,blue,stimuli/solid-rectangle.png,stimuli/blue-square.png,1,,,,,,,,,,,,,,,,,,,,,,,,,0,0,0,0,0,0,0,0,0,21,21,21,,,,,,,,,,,,,,,,,,,,,,,,,,,,,,,,,,,,,,,,,,,,,,,,,,,,,,,,,,,,,,,,,,,,,,,,613.2501749992371,None,,,,,,,,,,,,,,,,,,,,,,,,,,,,,,,,,,,,,,,,,,611.4171671867371,None,612.401780128479,None,1,1,612.401780128479,None,0.714850902557373,1000,001,01,2021_Nov_02_1418,task-switching-replication,2021.2.3,59.9828959599571,
1,23,experiment,01,standing,switch,congruant,dashed,triangle,blue,stimuli/dashed-rectangle.png,stimuli/blue-triangle.png,1,,,,,,,,,,,,,,,,,,,,,,,,,0,0,0,0,0,0,0,0,0,22,22,22,,,,,,,,,,,,,,,,,,,,,,,,,,,,,,,,,,,,,,,,,,,,,,,,,,,,,,,,,,,,,,,,,,,,,,,,615.6639120578766,None,,,,,,,,,,,,,,,,,,,,,,,,,,,,,,,,,,,,,,,,,,613.479089975357,None,614.4636161327362,None,1,1,614.4636161327362,None,1.1049869060516357,1000,001,01,2021_Nov_02_1418,task-switching-replication,2021.2.3,59.9828959599571,
1,24,experiment,01,standing,switch,incongruant,solid,square,yellow,stimuli/solid-rectangle.png,stimuli/yellow-square.png,2,,,,,,,,,,,,,,,,,,,,,,,,,0,0,0,0,0,0,0,0,0,23,23,23,0,0,0,0,,,,,,,,,,,,,,,,,,,,,,,,,,,,,,,,,,,,,,,,,,,,,,,,,,,,,,,,,,,,,,,,,,,,,,,,,,618.4123365879059,619.4309191703796,618.4464809894562,None,,,,,,,,,,,,,,,,,,,,,,,,,,,,,,,,,,615.8929350376129,None,616.8772571086884,None,None,0,616.8772571086884,None,,1000,001,01,2021_Nov_02_1418,task-switching-replication,2021.2.3,59.9828959599571,
1,24,experiment,01,standing,switch,incongruant,solid,square,yellow,stimuli/solid-rectangle.png,stimuli/yellow-square.png,2,,,,,,,,,,,,,,,,,,,,,,,,,0,0,0,0,0,0,0,0,0,23,23,23,,,,,,,,,,,,,,,,,,,,,,,,,,,,,,,,,,,,,,,,,,,,,,,,,,,,,,,,,,,,,,,,,,,,,,,,623.4688980579376,None,,,,,,,,,,,,,,,,,,,,,,,,,,,,,,,,,,,,,,,,,,,,,,,,,,,1000,001,01,2021_Nov_02_1418,task-switching-replication,2021.2.3,59.9828959599571,
1,25,experiment,01,standing,switch,incongruant,dashed,triangle,yellow,stimuli/dashed-rectangle.png,stimuli/yellow-triangle.png,1,,,,,,,,,,,,,,,,,,,,,,,,,0,0,0,0,0,0,0,0,0,24,24,24,,,,,,,,,,,,,,,,,,,,,,,,,,,,,,,,,,,,,,,,,,,,,,,,,,,,,,,,,,,,,,,,,,,,,,,,625.6177752017975,None,,,,,,,,,,,,,,,,,,,,,,,,,,,,,,,,,,,,,,,,,,623.6654419898987,None,624.650062084198,None,1,1,624.650062084198,None,0.8384890556335449,1000,001,01,2021_Nov_02_1418,task-switching-replication,2021.2.3,59.9828959599571,
1,26,experiment,01,standing,noswitch,congruant,dashed,triangle,blue,stimuli/dashed-rectangle.png,stimuli/blue-triangle.png,1,,,,,,,,,,,,,,,,,,,,,,,,,0,0,0,0,0,0,0,0,0,25,25,25,,,,,0,0,0,0,,,,,,,,,,,,,,,,,,,,,,,,,,,,,,,,,,,,,,,,,,,,,,,,,,,,,,,,,,,,,,,,,,627.9456361532211,628.9977090358734,627.9786729812622,None,,,,,,,,,,,,,,,,,,,,,,,,,,,,,,,,,,,,,,625.8470950126648,None,626.830048084259,None,2,0,626.830048084259,None,1.0097720623016357,1000,001,01,2021_Nov_02_1418,task-switching-replication,2021.2.3,59.9828959599571,
1,26,experiment,01,standing,noswitch,congruant,dashed,triangle,blue,stimuli/dashed-rectangle.png,stimuli/blue-triangle.png,1,,,,,,,,,,,,,,,,,,,,,,,,,0,0,0,0,0,0,0,0,0,25,25,25,,,,,,,,,,,,,,,,,,,,,,,,,,,,,,,,,,,,,,,,,,,,,,,,,,,,,,,,,,,,,,,,,,,,,,,,632.9985451698303,None,,,,,,,,,,,,,,,,,,,,,,,,,,,,,,,,,,,,,,,,,,,,,,,,,,,1000,001,01,2021_Nov_02_1418,task-switching-replication,2021.2.3,59.9828959599571,
1,27,experiment,01,standing,noswitch,incongruant,dashed,square,blue,stimuli/dashed-rectangle.png,stimuli/blue-square.png,2,,,,,,,,,,,,,,,,,,,,,,,,,0,0,0,0,0,0,0,0,0,26,26,26,,,,,0,0,0,0,,,,,,,,,,,,,,,,,,,,,,,,,,,,,,,,,,,,,,,,,,,,,,,,,,,,,,,,,,,,,,,,,,635.7214946746826,636.7485570907593,635.7539160251617,None,,,,,,,,,,,,,,,,,,,,,,,,,,,,,,,,,,,,,,633.1955041885376,None,634.180468082428,None,None,0,634.180468082428,None,,1000,001,01,2021_Nov_02_1418,task-switching-replication,2021.2.3,59.9828959599571,
1,27,experiment,01,standing,noswitch,incongruant,dashed,square,blue,stimuli/dashed-rectangle.png,stimuli/blue-square.png,2,,,,,,,,,,,,,,,,,,,,,,,,,0,0,0,0,0,0,0,0,0,26,26,26,,,,,,,,,,,,,,,,,,,,,,,,,,,,,,,,,,,,,,,,,,,,,,,,,,,,,,,,,,,,,,,,,,,,,,,,640.7534921169281,None,,,,,,,,,,,,,,,,,,,,,,,,,,,,,,,,,,,,,,,,,,,,,,,,,,,1000,001,01,2021_Nov_02_1418,task-switching-replication,2021.2.3,59.9828959599571,
1,28,experiment,01,standing,noswitch,congruant,dashed,square,blue,stimuli/dashed-rectangle.png,stimuli/blue-square.png,2,,,,,,,,,,,,,,,,,,,,,,,,,0,0,0,0,0,0,0,0,0,27,27,27,,,,,0,0,0,0,,,,,,,,,,,,,,,,,,,,,,,,,,,,,,,,,,,,,,,,,,,,,,,,,,,,,,,,,,,,,,,,,,642.3981741666794,643.4492430686951,642.431214094162,None,,,,,,,,,,,,,,,,,,,,,,,,,,,,,,,,,,,,,,640.9501850605011,None,641.9351601600647,None,1,0,641.9351601600647,None,0.39365601539611816,1000,001,01,2021_Nov_02_1418,task-switching-replication,2021.2.3,59.9828959599571,
1,28,experiment,01,standing,noswitch,congruant,dashed,square,blue,stimuli/dashed-rectangle.png,stimuli/blue-square.png,2,,,,,,,,,,,,,,,,,,,,,,,,,0,0,0,0,0,0,0,0,0,27,27,27,,,,,,,,,,,,,,,,,,,,,,,,,,,,,,,,,,,,,,,,,,,,,,,,,,,,,,,,,,,,,,,,,,,,,,,,647.4513680934906,None,,,,,,,,,,,,,,,,,,,,,,,,,,,,,,,,,,,,,,,,,,,,,,,,,,,1000,001,01,2021_Nov_02_1418,task-switching-replication,2021.2.3,59.9828959599571,
1,29,experiment,01,standing,switch,congruant,solid,triangle,yellow,stimuli/solid-rectangle.png,stimuli/yellow-triangle.png,2,,,,,,,,,,,,,,,,,,,,,,,,,0,0,0,0,0,0,0,0,0,28,28,28,,,,,,,,,,,,,,,,,,,,,,,,,,,,,,,,,,,,,,,,,,,,,,,,,,,,,,,,,,,,,,,,,,,,,,,,649.598815202713,None,,,,,,,,,,,,,,,,,,,,,,,,,,,,,,,,,,,,,,,,,,647.6477501392365,None,648.6324651241302,None,2,1,648.6324651241302,None,0.8232340812683105,1000,001,01,2021_Nov_02_1418,task-switching-replication,2021.2.3,59.9828959599571,
1,30,experiment,01,standing,noswitch,incongruant,solid,triangle,blue,stimuli/solid-rectangle.png,stimuli/blue-triangle.png,1,,,,,,,,,,,,,,,,,,,,,,,,,0,0,0,0,0,0,0,0,0,29,29,29,0,0,0,0,,,,,,,,,,,,,,,,,,,,,,,,,,,,,,,,,,,,,,,,,,,,,,,,,,,,,,,,,,,,,,,,,,,,,,,,,,651.3322781324387,652.3837041854858,651.3656830787659,None,,,,,,,,,,,,,,,,,,,,,,,,,,,,,,,,,,649.827751159668,None,650.8106172084808,None,2,0,650.8106172084808,None,0.4438908100128174,1000,001,01,2021_Nov_02_1418,task-switching-replication,2021.2.3,59.9828959599571,
1,30,experiment,01,standing,noswitch,incongruant,solid,triangle,blue,stimuli/solid-rectangle.png,stimuli/blue-triangle.png,1,,,,,,,,,,,,,,,,,,,,,,,,,0,0,0,0,0,0,0,0,0,29,29,29,,,,,,,,,,,,,,,,,,,,,,,,,,,,,,,,,,,,,,,,,,,,,,,,,,,,,,,,,,,,,,,,,,,,,,,,656.3859710693359,None,,,,,,,,,,,,,,,,,,,,,,,,,,,,,,,,,,,,,,,,,,,,,,,,,,,1000,001,01,2021_Nov_02_1418,task-switching-replication,2021.2.3,59.9828959599571,
1,31,experiment,01,standing,noswitch,congruant,solid,triangle,blue,stimuli/solid-rectangle.png,stimuli/blue-triangle.png,1,,,,,,,,,,,,,,,,,,,,,,,,,0,0,0,0,0,0,0,0,0,30,30,30,,,,,,,,,,,,,,,,,,,,,,,,,,,,,,,,,,,,,,,,,,,,,,,,,,,,,,,,,,,,,,,,,,,,,,,,658.2972061634064,None,,,,,,,,,,,,,,,,,,,,,,,,,,,,,,,,,,,,,,,,,,656.5826461315155,None,657.5668210983276,None,1,1,657.5668210983276,None,0.5964140892028809,1000,001,01,2021_Nov_02_1418,task-switching-replication,2021.2.3,59.9828959599571,
1,32,experiment,01,standing,switch,incongruant,dashed,square,yellow,stimuli/dashed-rectangle.png,stimuli/yellow-square.png,2,,,,,,,,,,,,,,,,,,,,,,,,,0,0,0,0,0,0,0,0,0,31,31,31,,,,,,,,,,,,,,,,,,,,,,,,,,,,,,,,,,,,,,,,,,,,,,,,,,,,,,,,,,,,,,,,,,,,,,,,660.4751431941986,None,,,,,,,,,,,,,,,,,,,,,,,,,,,,,,,,,,,,,,,,,,658.5258011817932,None,659.5091950893402,None,2,1,659.5091950893402,None,0.827409029006958,1000,001,01,2021_Nov_02_1418,task-switching-replication,2021.2.3,59.9828959599571,
1,33,experiment,01,standing,switch,congruant,solid,triangle,yellow,stimuli/solid-rectangle.png,stimuli/yellow-triangle.png,2,,,,,,,,,,,,,,,,,,,,,,,,,0,0,0,0,0,0,0,0,0,32,32,32,0,0,0,0,,,,,,,,,,,,,,,,,,,,,,,,,,,,,,,,,,,,,,,,,,,,,,,,,,,,,,,,,,,,,,,,,,,,,,,,,,662.6834410429001,663.735543012619,662.7158071994781,None,,,,,,,,,,,,,,,,,,,,,,,,,,,,,,,,,,660.7042210102081,None,661.6883912086487,None,1,0,661.6883912086487,None,0.8740630149841309,1000,001,01,2021_Nov_02_1418,task-switching-replication,2021.2.3,59.9828959599571,
1,33,experiment,01,standing,switch,congruant,solid,triangle,yellow,stimuli/solid-rectangle.png,stimuli/yellow-triangle.png,2,,,,,,,,,,,,,,,,,,,,,,,,,0,0,0,0,0,0,0,0,0,32,32,32,,,,,,,,,,,,,,,,,,,,,,,,,,,,,,,,,,,,,,,,,,,,,,,,,,,,,,,,,,,,,,,,,,,,,,,,667.735594034195,None,,,,,,,,,,,,,,,,,,,,,,,,,,,,,,,,,,,,,,,,,,,,,,,,,,,1000,001,01,2021_Nov_02_1418,task-switching-replication,2021.2.3,59.9828959599571,
1,34,experiment,01,standing,switch,congruant,dashed,square,yellow,stimuli/dashed-rectangle.png,stimuli/yellow-square.png,2,,,,,,,,,,,,,,,,,,,,,,,,,0,0,0,0,0,0,0,0,0,33,33,33,,,,,0,0,0,0,,,,,,,,,,,,,,,,,,,,,,,,,,,,,,,,,,,,,,,,,,,,,,,,,,,,,,,,,,,,,,,,,,670.45019364357,671.4996659755707,670.4817671775818,None,,,,,,,,,,,,,,,,,,,,,,,,,,,,,,,,,,,,,,667.932156085968,None,668.9151091575623,None,None,0,668.9151091575623,None,,1000,001,01,2021_Nov_02_1418,task-switching-replication,2021.2.3,59.9828959599571,
1,34,experiment,01,standing,switch,congruant,dashed,square,yellow,stimuli/dashed-rectangle.png,stimuli/yellow-square.png,2,,,,,,,,,,,,,,,,,,,,,,,,,0,0,0,0,0,0,0,0,0,33,33,33,,,,,,,,,,,,,,,,,,,,,,,,,,,,,,,,,,,,,,,,,,,,,,,,,,,,,,,,,,,,,,,,,,,,,,,,675.501727104187,None,,,,,,,,,,,,,,,,,,,,,,,,,,,,,,,,,,,,,,,,,,,,,,,,,,,1000,001,01,2021_Nov_02_1418,task-switching-replication,2021.2.3,59.9828959599571,
1,35,experiment,01,standing,noswitch,congruant,dashed,square,yellow,stimuli/dashed-rectangle.png,stimuli/yellow-square.png,2,,,,,,,,,,,,,,,,,,,,,,,,,0,0,0,0,0,0,0,0,0,34,34,34,,,,,0,0,0,0,,,,,,,,,,,,,,,,,,,,,,,,,,,,,,,,,,,,,,,,,,,,,,,,,,,,,,,,,,,,,,,,,,677.321328997612,678.3738691806793,677.3550071716309,None,,,,,,,,,,,,,,,,,,,,,,,,,,,,,,,,,,,,,,675.6984171867371,None,676.6816170215607,None,1,0,676.6816170215607,None,0.5708091259002686,1000,001,01,2021_Nov_02_1418,task-switching-replication,2021.2.3,59.9828959599571,
1,35,experiment,01,standing,noswitch,congruant,dashed,square,yellow,stimuli/dashed-rectangle.png,stimuli/yellow-square.png,2,,,,,,,,,,,,,,,,,,,,,,,,,0,0,0,0,0,0,0,0,0,34,34,34,,,,,,,,,,,,,,,,,,,,,,,,,,,,,,,,,,,,,,,,,,,,,,,,,,,,,,,,,,,,,,,,,,,,,,,,682.3810250759125,None,,,,,,,,,,,,,,,,,,,,,,,,,,,,,,,,,,,,,,,,,,,,,,,,,,,1000,001,01,2021_Nov_02_1418,task-switching-replication,2021.2.3,59.9828959599571,
1,36,experiment,01,standing,noswitch,incongruant,dashed,triangle,yellow,stimuli/dashed-rectangle.png,stimuli/yellow-triangle.png,1,,,,,,,,,,,,,,,,,,,,,,,,,0,0,0,0,0,0,0,0,0,35,35,35,,,,,0,0,0,0,,,,,,,,,,,,,,,,,,,,,,,,,,,,,,,,,,,,,,,,,,,,,,,,,,,,,,,,,,,,,,,,,,684.8500851392746,685.8679821491241,684.8839361667633,None,,,,,,,,,,,,,,,,,,,,,,,,,,,,,,,,,,,,,,682.5772020816803,None,683.5608801841736,None,2,0,683.5608801841736,None,1.2009820938110352,1000,001,01,2021_Nov_02_1418,task-switching-replication,2021.2.3,59.9828959599571,
1,36,experiment,01,standing,noswitch,incongruant,dashed,triangle,yellow,stimuli/dashed-rectangle.png,stimuli/yellow-triangle.png,1,,,,,,,,,,,,,,,,,,,,,,,,,0,0,0,0,0,0,0,0,0,35,35,35,,,,,,,,,,,,,,,,,,,,,,,,,,,,,,,,,,,,,,,,,,,,,,,,,,,,,,,,,,,,,,,,,,,,,,,,689.9052259922028,None,,,,,,,,,,,,,,,,,,,,,,,,,,,,,,,,,,,,,,,,,,,,,,,,,,,1000,001,01,2021_Nov_02_1418,task-switching-replication,2021.2.3,59.9828959599571,
1,37,experiment,01,standing,switch,incongruant,solid,triangle,yellow,stimuli/solid-rectangle.png,stimuli/yellow-triangle.png,2,,,,,,,,,,,,,,,,,,,,,,,,,0,0,0,0,0,0,0,0,0,36,36,36,0,0,0,0,,,,,,,,,,,,,,,,,,,,,,,,,,,,,,,,,,,,,,,,,,,,,,,,,,,,,,,,,,,,,,,,,,,,,,,,,,692.621280670166,693.6718010902405,692.6525321006775,None,,,,,,,,,,,,,,,,,,,,,,,,,,,,,,,,,,690.1016881465912,None,691.0862030982971,None,None,0,691.0862030982971,None,,1000,001,01,2021_Nov_02_1418,task-switching-replication,2021.2.3,59.9828959599571,
1,37,experiment,01,standing,switch,incongruant,solid,triangle,yellow,stimuli/solid-rectangle.png,stimuli/yellow-triangle.png,2,,,,,,,,,,,,,,,,,,,,,,,,,0,0,0,0,0,0,0,0,0,36,36,36,,,,,,,,,,,,,,,,,,,,,,,,,,,,,,,,,,,,,,,,,,,,,,,,,,,,,,,,,,,,,,,,,,,,,,,,697.6530480384827,None,,,,,,,,,,,,,,,,,,,,,,,,,,,,,,,,,,,,,,,,,,,,,,,,,,,1000,001,01,2021_Nov_02_1418,task-switching-replication,2021.2.3,59.9828959599571,
1,38,experiment,01,standing,switch,incongruant,dashed,triangle,yellow,stimuli/dashed-rectangle.png,stimuli/yellow-triangle.png,1,,,,,,,,,,,,,,,,,,,,,,,,,0,0,0,0,0,0,0,0,0,37,37,37,,,,,0,0,0,0,,,,,,,,,,,,,,,,,,,,,,,,,,,,,,,,,,,,,,,,,,,,,,,,,,,,,,,,,,,,,,,,,,700.3687756061554,701.4194531440735,700.4005391597748,None,,,,,,,,,,,,,,,,,,,,,,,,,,,,,,,,,,,,,,697.84947514534,None,698.8332281112671,None,None,0,698.8332281112671,None,,1000,001,01,2021_Nov_02_1418,task-switching-replication,2021.2.3,59.9828959599571,
1,38,experiment,01,standing,switch,incongruant,dashed,triangle,yellow,stimuli/dashed-rectangle.png,stimuli/yellow-triangle.png,1,,,,,,,,,,,,,,,,,,,,,,,,,0,0,0,0,0,0,0,0,0,37,37,37,,,,,,,,,,,,,,,,,,,,,,,,,,,,,,,,,,,,,,,,,,,,,,,,,,,,,,,,,,,,,,,,,,,,,,,,705.4201321601868,None,,,,,,,,,,,,,,,,,,,,,,,,,,,,,,,,,,,,,,,,,,,,,,,,,,,1000,001,01,2021_Nov_02_1418,task-switching-replication,2021.2.3,59.9828959599571,
1,39,experiment,01,standing,switch,incongruant,solid,square,yellow,stimuli/solid-rectangle.png,stimuli/yellow-square.png,2,,,,,,,,,,,,,,,,,,,,,,,,,0,0,0,0,0,0,0,0,0,38,38,38,0,0,0,0,,,,,,,,,,,,,,,,,,,,,,,,,,,,,,,,,,,,,,,,,,,,,,,,,,,,,,,,,,,,,,,,,,,,,,,,,,708.1363756656647,709.1863551139832,708.1675941944122,None,,,,,,,,,,,,,,,,,,,,,,,,,,,,,,,,,,705.6164782047272,None,706.600615978241,None,None,0,706.600615978241,None,,1000,001,01,2021_Nov_02_1418,task-switching-replication,2021.2.3,59.9828959599571,
1,39,experiment,01,standing,switch,incongruant,solid,square,yellow,stimuli/solid-rectangle.png,stimuli/yellow-square.png,2,,,,,,,,,,,,,,,,,,,,,,,,,0,0,0,0,0,0,0,0,0,38,38,38,,,,,,,,,,,,,,,,,,,,,,,,,,,,,,,,,,,,,,,,,,,,,,,,,,,,,,,,,,,,,,,,,,,,,,,,713.1885280609131,None,,,,,,,,,,,,,,,,,,,,,,,,,,,,,,,,,,,,,,,,,,,,,,,,,,,1000,001,01,2021_Nov_02_1418,task-switching-replication,2021.2.3,59.9828959599571,
1,40,experiment,01,standing,noswitch,congruant,solid,triangle,yellow,stimuli/solid-rectangle.png,stimuli/yellow-triangle.png,2,,,,,,,,,,,,,,,,,,,,,,,,,0,0,0,0,0,0,0,0,0,39,39,39,0,0,0,0,,,,,,,,,,,,,,,,,,,,,,,,,,,,,,,,,,,,,,,,,,,,,,,,,,,,,,,,,,,,,,,,,,,,,,,,,,715.9026765823364,716.9527151584625,715.934070110321,None,,,,,,,,,,,,,,,,,,,,,,,,,,,,,,,,,,713.3851690292358,None,714.3681831359863,None,None,0,714.3681831359863,None,,1000,001,01,2021_Nov_02_1418,task-switching-replication,2021.2.3,59.9828959599571,
1,40,experiment,01,standing,noswitch,congruant,solid,triangle,yellow,stimuli/solid-rectangle.png,stimuli/yellow-triangle.png,2,,,,,,,,,,,,,,,,,,,,,,,,,0,0,0,0,0,0,0,0,0,39,39,39,,,,,,,,,,,,,,,,,,,,,,,,,,,,,,,,,,,,,,,,,,,,,,,,,,,,,,,,,,,,,,,,,,,,,,,,720.9556570053101,None,,,,,,,,,,,,,,,,,,,,,,,,,,,,,,,,,,,,,,,,,,,,,,,,,,,1000,001,01,2021_Nov_02_1418,task-switching-replication,2021.2.3,59.9828959599571,
1,41,experiment,01,standing,switch,incongruant,dashed,triangle,yellow,stimuli/dashed-rectangle.png,stimuli/yellow-triangle.png,1,,,,,,,,,,,,,,,,,,,,,,,,,0,0,0,0,0,0,0,0,0,40,40,40,,,,,,,,,,,,,,,,,,,,,,,,,,,,,,,,,,,,,,,,,,,,,,,,,,,,,,,,,,,,,,,,,,,,,,,,722.74351811409,None,,,,,,,,,,,,,,,,,,,,,,,,,,,,,,,,,,,,,,,,,,721.1522371768951,None,722.1350471973419,None,1,1,722.1350471973419,None,0.5008788108825684,1000,001,01,2021_Nov_02_1418,task-switching-replication,2021.2.3,59.9828959599571,
1,42,experiment,01,standing,switch,congruant,solid,square,blue,stimuli/solid-rectangle.png,stimuli/blue-square.png,1,,,,,,,,,,,,,,,,,,,,,,,,,0,0,0,0,0,0,0,0,0,41,41,41,0,0,0,0,,,,,,,,,,,,,,,,,,,,,,,,,,,,,,,,,,,,,,,,,,,,,,,,,,,,,,,,,,,,,,,,,,,,,,,,,,724.8911961317062,725.9090261459351,724.9238510131836,None,,,,,,,,,,,,,,,,,,,,,,,,,,,,,,,,,,722.9723131656647,None,723.956197977066,None,2,0,723.956197977066,None,0.852053165435791,1000,001,01,2021_Nov_02_1418,task-switching-replication,2021.2.3,59.9828959599571,
1,42,experiment,01,standing,switch,congruant,solid,square,blue,stimuli/solid-rectangle.png,stimuli/blue-square.png,1,,,,,,,,,,,,,,,,,,,,,,,,,0,0,0,0,0,0,0,0,0,41,41,41,,,,,,,,,,,,,,,,,,,,,,,,,,,,,,,,,,,,,,,,,,,,,,,,,,,,,,,,,,,,,,,,,,,,,,,,729.945629119873,None,,,,,,,,,,,,,,,,,,,,,,,,,,,,,,,,,,,,,,,,,,,,,,,,,,,1000,001,01,2021_Nov_02_1418,task-switching-replication,2021.2.3,59.9828959599571,
1,43,experiment,01,standing,switch,incongruant,dashed,square,blue,stimuli/dashed-rectangle.png,stimuli/blue-square.png,2,,,,,,,,,,,,,,,,,,,,,,,,,0,0,0,0,0,0,0,0,0,42,42,42,,,,,0,0,0,0,,,,,,,,,,,,,,,,,,,,,,,,,,,,,,,,,,,,,,,,,,,,,,,,,,,,,,,,,,,,,,,,,,731.5329810380936,732.5848979949951,731.5655801296234,None,,,,,,,,,,,,,,,,,,,,,,,,,,,,,,,,,,,,,,730.1428401470184,None,731.1265552043915,None,1,0,731.1265552043915,None,0.28558993339538574,1000,001,01,2021_Nov_02_1418,task-switching-replication,2021.2.3,59.9828959599571,
1,43,experiment,01,standing,switch,incongruant,dashed,square,blue,stimuli/dashed-rectangle.png,stimuli/blue-square.png,2,,,,,,,,,,,,,,,,,,,,,,,,,0,0,0,0,0,0,0,0,0,42,42,42,,,,,,,,,,,,,,,,,,,,,,,,,,,,,,,,,,,,,,,,,,,,,,,,,,,,,,,,,,,,,,,,,,,,,,,,736.5899891853333,None,,,,,,,,,,,,,,,,,,,,,,,,,,,,,,,,,,,,,,,,,,,,,,,,,,,1000,001,01,2021_Nov_02_1418,task-switching-replication,2021.2.3,59.9828959599571,
1,44,experiment,01,standing,noswitch,congruant,dashed,square,yellow,stimuli/dashed-rectangle.png,stimuli/yellow-square.png,2,,,,,,,,,,,,,,,,,,,,,,,,,0,0,0,0,0,0,0,0,0,43,43,43,,,,,,,,,,,,,,,,,,,,,,,,,,,,,,,,,,,,,,,,,,,,,,,,,,,,,,,,,,,,,,,,,,,,,,,,738.5598061084747,None,,,,,,,,,,,,,,,,,,,,,,,,,,,,,,,,,,,,,,,,,,736.786707162857,None,737.771152973175,None,2,1,737.771152973175,None,0.640408992767334,1000,001,01,2021_Nov_02_1418,task-switching-replication,2021.2.3,59.9828959599571,
1,45,experiment,01,standing,noswitch,incongruant,dashed,triangle,blue,stimuli/dashed-rectangle.png,stimuli/blue-triangle.png,1,,,,,,,,,,,,,,,,,,,,,,,,,0,0,0,0,0,0,0,0,0,44,44,44,,,,,,,,,,,,,,,,,,,,,,,,,,,,,,,,,,,,,,,,,,,,,,,,,,,,,,,,,,,,,,,,,,,,,,,,740.5041711330414,None,,,,,,,,,,,,,,,,,,,,,,,,,,,,,,,,,,,,,,,,,,738.7893300056458,None,739.7732532024384,None,1,1,739.7732532024384,None,0.5879170894622803,1000,001,01,2021_Nov_02_1418,task-switching-replication,2021.2.3,59.9828959599571,
1,46,experiment,01,standing,noswitch,incongruant,dashed,square,blue,stimuli/dashed-rectangle.png,stimuli/blue-square.png,2,,,,,,,,,,,,,,,,,,,,,,,,,0,0,0,0,0,0,0,0,0,45,45,45,,,,,,,,,,,,,,,,,,,,,,,,,,,,,,,,,,,,,,,,,,,,,,,,,,,,,,,,,,,,,,,,,,,,,,,,742.325786113739,None,,,,,,,,,,,,,,,,,,,,,,,,,,,,,,,,,,,,,,,,,,740.7336020469666,None,741.7172491550446,None,2,1,741.7172491550446,None,0.5068440437316895,1000,001,01,2021_Nov_02_1418,task-switching-replication,2021.2.3,59.9828959599571,
1,47,experiment,01,standing,switch,congruant,solid,square,yellow,stimuli/solid-rectangle.png,stimuli/yellow-square.png,2,,,,,,,,,,,,,,,,,,,,,,,,,0,0,0,0,0,0,0,0,0,46,46,46,0,0,0,0,,,,,,,,,,,,,,,,,,,,,,,,,,,,,,,,,,,,,,,,,,,,,,,,,,,,,,,,,,,,,,,,,,,,,,,,,,744.8261460065842,745.8784191608429,744.8593990802765,None,,,,,,,,,,,,,,,,,,,,,,,,,,,,,,,,,,742.5543761253357,None,743.5376000404358,None,1,0,743.5376000404358,None,1.2148871421813965,1000,001,01,2021_Nov_02_1418,task-switching-replication,2021.2.3,59.9828959599571,
1,47,experiment,01,standing,switch,congruant,solid,square,yellow,stimuli/solid-rectangle.png,stimuli/yellow-square.png,2,,,,,,,,,,,,,,,,,,,,,,,,,0,0,0,0,0,0,0,0,0,46,46,46,,,,,,,,,,,,,,,,,,,,,,,,,,,,,,,,,,,,,,,,,,,,,,,,,,,,,,,,,,,,,,,,,,,,,,,,749.882749080658,None,,,,,,,,,,,,,,,,,,,,,,,,,,,,,,,,,,,,,,,,,,,,,,,,,,,1000,001,01,2021_Nov_02_1418,task-switching-replication,2021.2.3,59.9828959599571,
1,48,experiment,01,standing,noswitch,incongruant,solid,triangle,blue,stimuli/solid-rectangle.png,stimuli/blue-triangle.png,1,,,,,,,,,,,,,,,,,,,,,,,,,0,0,0,0,0,0,0,0,0,47,47,47,,,,,,,,,,,,,,,,,,,,,,,,,,,,,,,,,,,,,,,,,,,,,,,,,,,,,,,,,,,,,,,,,,,,,,,,752.382071018219,None,,,,,,,,,,,,,,,,,,,,,,,,,,,,,,,,,,,,,,,,,,750.0793831348419,None,751.063737154007,None,1,1,751.063737154007,None,1.2043559551239014,1000,001,01,2021_Nov_02_1418,task-switching-replication,2021.2.3,59.9828959599571,
1,49,experiment,01,standing,noswitch,incongruant,solid,square,yellow,stimuli/solid-rectangle.png,stimuli/yellow-square.png,2,,,,,,,,,,,,,,,,,,,,,,,,,0,0,0,0,0,0,0,0,0,48,48,48,,,,,,,,,,,,,,,,,,,,,,,,,,,,,,,,,,,,,,,,,,,,,,,,,,,,,,,,,,,,,,,,,,,,,,,,754.3820300102234,None,,,,,,,,,,,,,,,,,,,,,,,,,,,,,,,,,,,,,,,,,,752.6110291481018,None,753.5955431461334,None,2,1,753.5955431461334,None,0.6717119216918945,1000,001,01,2021_Nov_02_1418,task-switching-replication,2021.2.3,59.9828959599571,
,,,01,,,,,,,,,,,,,,,,,,,,,,,,,,,,,,,,,,0,0,0,0,0,0,0,0,,,,,,,,,,,,,,,,,,,,,,,,,,,,,,,,,,,,,,,,,,,,,,,,,,,,,,,,,,,,,,,,,,,,,,,,,,,,,,,,,,,,,,,,,,,,,,,,,,,,,,,,,,,,,,,,,,,,,,,,,,,,,,,,1000,001,01,2021_Nov_02_1418,task-switching-replication,2021.2.3,59.9828959599571,
2,1,experiment,01,standing,buffer,buffer,dashed,triangle,blue,stimuli/dashed-rectangle.png,stimuli/blue-triangle.png,1,,,,,,,,,,,,,,,,,,,,,,,,,0,0,0,0,1,0,1,0,0,0,0,0,,,,,,,,,,,,,,,,,,,,,,,,,,,,,,,,,,,,,,,,,,,,,,,,,,,,,,,,,,,,,,,,,,,,,,,,764.0221049785614,None,,,,,,,,,,,,,,,,,,,,,,,,,,,,,,754.6116421222687,None,2,4.0816099643707275,754.6116421222687,None,758.8110990524292,None,2,2.628156900405884,758.8110990524292,None,761.5982670783997,None,762.5825991630554,None,1,1,762.5825991630554,None,1.2954649925231934,1000,001,01,2021_Nov_02_1418,task-switching-replication,2021.2.3,59.9828959599571,
2,2,experiment,01,standing,switch,incongruant,solid,square,yellow,stimuli/solid-rectangle.png,stimuli/yellow-square.png,2,,,,,,,,,,,,,,,,,,,,,,,,,0,0,0,0,1,0,1,0,0,1,1,1,,,,,,,,,,,,,,,,,,,,,,,,,,,,,,,,,,,,,,,,,,,,,,,,,,,,,,,,,,,,,,,,,,,,,,,,766.1423900127411,None,,,,,,,,,,,,,,,,,,,,,,,,,,,,,,,,,,,,,,,,,,764.2514281272888,None,765.2362101078033,None,2,1,765.2362101078033,None,0.7578909397125244,1000,001,01,2021_Nov_02_1418,task-switching-replication,2021.2.3,59.9828959599571,
2,3,experiment,01,standing,switch,congruant,dashed,square,yellow,stimuli/dashed-rectangle.png,stimuli/yellow-square.png,2,,,,,,,,,,,,,,,,,,,,,,,,,0,0,0,0,1,0,1,0,0,2,2,2,,,,,,,,,,,,,,,,,,,,,,,,,,,,,,,,,,,,,,,,,,,,,,,,,,,,,,,,,,,,,,,,,,,,,,,,768.0827770233154,None,,,,,,,,,,,,,,,,,,,,,,,,,,,,,,,,,,,,,,,,,,766.3715960979462,None,767.3545331954956,None,2,1,767.3545331954956,None,0.620567798614502,1000,001,01,2021_Nov_02_1418,task-switching-replication,2021.2.3,59.9828959599571,
2,4,experiment,01,standing,noswitch,congruant,dashed,square,blue,stimuli/dashed-rectangle.png,stimuli/blue-square.png,2,,,,,,,,,,,,,,,,,,,,,,,,,0,0,0,0,1,0,1,0,0,3,3,3,,,,,0,0,0,0,,,,,,,,,,,,,,,,,,,,,,,,,,,,,,,,,,,,,,,,,,,,,,,,,,,,,,,,,,,,,,,,,,770.8313817977905,771.8830180168152,770.8633561134338,None,,,,,,,,,,,,,,,,,,,,,,,,,,,,,,,,,,,,,,768.3116970062256,None,769.2957770824432,None,None,0,769.2957770824432,None,,1000,001,01,2021_Nov_02_1418,task-switching-replication,2021.2.3,59.9828959599571,
2,4,experiment,01,standing,noswitch,congruant,dashed,square,blue,stimuli/dashed-rectangle.png,stimuli/blue-square.png,2,,,,,,,,,,,,,,,,,,,,,,,,,0,0,0,0,1,0,1,0,0,3,3,3,,,,,,,,,,,,,,,,,,,,,,,,,,,,,,,,,,,,,,,,,,,,,,,,,,,,,,,,,,,,,,,,,,,,,,,,775.884742975235,None,,,,,,,,,,,,,,,,,,,,,,,,,,,,,,,,,,,,,,,,,,,,,,,,,,,1000,001,01,2021_Nov_02_1418,task-switching-replication,2021.2.3,59.9828959599571,
2,5,experiment,01,standing,noswitch,incongruant,dashed,triangle,yellow,stimuli/dashed-rectangle.png,stimuli/yellow-triangle.png,1,,,,,,,,,,,,,,,,,,,,,,,,,0,0,0,0,1,0,1,0,0,4,4,4,,,,,,,,,,,,,,,,,,,,,,,,,,,,,,,,,,,,,,,,,,,,,,,,,,,,,,,,,,,,,,,,,,,,,,,,778.090870141983,None,,,,,,,,,,,,,,,,,,,,,,,,,,,,,,,,,,,,,,,,,,776.0812900066376,None,777.0660691261292,None,1,1,777.0660691261292,None,0.8662059307098389,1000,001,01,2021_Nov_02_1418,task-switching-replication,2021.2.3,59.9828959599571,
2,6,experiment,01,standing,switch,congruant,solid,triangle,blue,stimuli/solid-rectangle.png,stimuli/blue-triangle.png,1,,,,,,,,,,,,,,,,,,,,,,,,,0,0,0,0,1,0,1,0,0,5,5,5,0,0,0,0,,,,,,,,,,,,,,,,,,,,,,,,,,,,,,,,,,,,,,,,,,,,,,,,,,,,,,,,,,,,,,,,,,,,,,,,,,780.535395026207,781.5871770381927,780.567910194397,None,,,,,,,,,,,,,,,,,,,,,,,,,,,,,,,,,,778.3200011253357,None,779.304193019867,None,2,0,779.304193019867,None,1.1301860809326172,1000,001,01,2021_Nov_02_1418,task-switching-replication,2021.2.3,59.9828959599571,
2,6,experiment,01,standing,switch,congruant,solid,triangle,blue,stimuli/solid-rectangle.png,stimuli/blue-triangle.png,1,,,,,,,,,,,,,,,,,,,,,,,,,0,0,0,0,1,0,1,0,0,5,5,5,,,,,,,,,,,,,,,,,,,,,,,,,,,,,,,,,,,,,,,,,,,,,,,,,,,,,,,,,,,,,,,,,,,,,,,,785.5880270004272,None,,,,,,,,,,,,,,,,,,,,,,,,,,,,,,,,,,,,,,,,,,,,,,,,,,,1000,001,01,2021_Nov_02_1418,task-switching-replication,2021.2.3,59.9828959599571,
2,7,experiment,01,standing,switch,congruant,dashed,triangle,blue,stimuli/dashed-rectangle.png,stimuli/blue-triangle.png,1,,,,,,,,,,,,,,,,,,,,,,,,,0,0,0,0,1,0,1,0,0,6,6,6,,,,,,,,,,,,,,,,,,,,,,,,,,,,,,,,,,,,,,,,,,,,,,,,,,,,,,,,,,,,,,,,,,,,,,,,788.2680881023407,None,,,,,,,,,,,,,,,,,,,,,,,,,,,,,,,,,,,,,,,,,,785.7847030162811,None,786.768904209137,None,1,1,786.768904209137,None,1.3603489398956299,1000,001,01,2021_Nov_02_1418,task-switching-replication,2021.2.3,59.9828959599571,
2,8,experiment,01,standing,switch,incongruant,solid,square,yellow,stimuli/solid-rectangle.png,stimuli/yellow-square.png,2,,,,,,,,,,,,,,,,,,,,,,,,,0,0,0,0,1,0,1,0,0,7,7,7,,,,,,,,,,,,,,,,,,,,,,,,,,,,,,,,,,,,,,,,,,,,,,,,,,,,,,,,,,,,,,,,,,,,,,,,790.386125087738,None,,,,,,,,,,,,,,,,,,,,,,,,,,,,,,,,,,,,,,,,,,788.4974842071533,None,789.4821040630341,None,2,1,789.4821040630341,None,0.8058791160583496,1000,001,01,2021_Nov_02_1418,task-switching-replication,2021.2.3,59.9828959599571,
2,9,experiment,01,standing,noswitch,congruant,solid,square,yellow,stimuli/solid-rectangle.png,stimuli/yellow-square.png,2,,,,,,,,,,,,,,,,,,,,,,,,,0,0,0,0,1,0,1,0,0,8,8,8,,,,,,,,,,,,,,,,,,,,,,,,,,,,,,,,,,,,,,,,,,,,,,,,,,,,,,,,,,,,,,,,,,,,,,,,792.0918340682983,None,,,,,,,,,,,,,,,,,,,,,,,,,,,,,,,,,,,,,,,,,,790.6150281429291,None,791.5996990203857,None,2,1,791.5996990203857,None,0.3803701400756836,1000,001,01,2021_Nov_02_1418,task-switching-replication,2021.2.3,59.9828959599571,
2,10,experiment,01,standing,switch,congruant,dashed,square,yellow,stimuli/dashed-rectangle.png,stimuli/yellow-square.png,2,,,,,,,,,,,,,,,,,,,,,,,,,0,0,0,0,1,0,1,0,0,9,9,9,,,,,,,,,,,,,,,,,,,,,,,,,,,,,,,,,,,,,,,,,,,,,,,,,,,,,,,,,,,,,,,,,,,,,,,,794.2102041244507,None,,,,,,,,,,,,,,,,,,,,,,,,,,,,,,,,,,,,,,,,,,792.3209331035614,None,793.3049490451813,None,2,1,793.3049490451813,None,0.7721550464630127,1000,001,01,2021_Nov_02_1418,task-switching-replication,2021.2.3,59.9828959599571,
2,11,experiment,01,standing,switch,incongruant,solid,square,blue,stimuli/solid-rectangle.png,stimuli/blue-square.png,1,,,,,,,,,,,,,,,,,,,,,,,,,0,0,0,0,1,0,1,0,0,10,10,10,0,0,0,0,,,,,,,,,,,,,,,,,,,,,,,,,,,,,,,,,,,,,,,,,,,,,,,,,,,,,,,,,,,,,,,,,,,,,,,,,,796.9572286605835,797.975081205368,796.9884121417999,None,,,,,,,,,,,,,,,,,,,,,,,,,,,,,,,,,,794.4391071796417,None,795.4229321479797,None,None,0,795.4229321479797,None,,1000,001,01,2021_Nov_02_1418,task-switching-replication,2021.2.3,59.9828959599571,
2,11,experiment,01,standing,switch,incongruant,solid,square,blue,stimuli/solid-rectangle.png,stimuli/blue-square.png,1,,,,,,,,,,,,,,,,,,,,,,,,,0,0,0,0,1,0,1,0,0,10,10,10,,,,,,,,,,,,,,,,,,,,,,,,,,,,,,,,,,,,,,,,,,,,,,,,,,,,,,,,,,,,,,,,,,,,,,,,802.0110101699829,None,,,,,,,,,,,,,,,,,,,,,,,,,,,,,,,,,,,,,,,,,,,,,,,,,,,1000,001,01,2021_Nov_02_1418,task-switching-replication,2021.2.3,59.9828959599571,
2,12,experiment,01,standing,noswitch,incongruant,solid,triangle,yellow,stimuli/solid-rectangle.png,stimuli/yellow-triangle.png,2,,,,,,,,,,,,,,,,,,,,,,,,,0,0,0,0,1,0,1,0,0,11,11,11,0,0,0,0,,,,,,,,,,,,,,,,,,,,,,,,,,,,,,,,,,,,,,,,,,,,,,,,,,,,,,,,,,,,,,,,,,,,,,,,,,803.6529339551926,804.7043471336365,803.6863090991974,None,,,,,,,,,,,,,,,,,,,,,,,,,,,,,,,,,,802.2072260379791,None,803.1902949810028,None,1,0,803.1902949810028,None,0.3977048397064209,1000,001,01,2021_Nov_02_1418,task-switching-replication,2021.2.3,59.9828959599571,
2,12,experiment,01,standing,noswitch,incongruant,solid,triangle,yellow,stimuli/solid-rectangle.png,stimuli/yellow-triangle.png,2,,,,,,,,,,,,,,,,,,,,,,,,,0,0,0,0,1,0,1,0,0,11,11,11,,,,,,,,,,,,,,,,,,,,,,,,,,,,,,,,,,,,,,,,,,,,,,,,,,,,,,,,,,,,,,,,,,,,,,,,808.7067492008209,None,,,,,,,,,,,,,,,,,,,,,,,,,,,,,,,,,,,,,,,,,,,,,,,,,,,1000,001,01,2021_Nov_02_1418,task-switching-replication,2021.2.3,59.9828959599571,
2,13,experiment,01,standing,switch,congruant,dashed,square,yellow,stimuli/dashed-rectangle.png,stimuli/yellow-square.png,2,,,,,,,,,,,,,,,,,,,,,,,,,0,0,0,0,1,0,1,0,0,12,12,12,,,,,,,,,,,,,,,,,,,,,,,,,,,,,,,,,,,,,,,,,,,,,,,,,,,,,,,,,,,,,,,,,,,,,,,,810.7334821224213,None,,,,,,,,,,,,,,,,,,,,,,,,,,,,,,,,,,,,,,,,,,808.9035060405731,None,809.887825012207,None,2,1,809.887825012207,None,0.747204065322876,1000,001,01,2021_Nov_02_1418,task-switching-replication,2021.2.3,59.9828959599571,
2,14,experiment,01,standing,noswitch,congruant,dashed,square,blue,stimuli/dashed-rectangle.png,stimuli/blue-square.png,2,,,,,,,,,,,,,,,,,,,,,,,,,0,0,0,0,1,0,1,0,0,13,13,13,,,,,0,0,0,0,,,,,,,,,,,,,,,,,,,,,,,,,,,,,,,,,,,,,,,,,,,,,,,,,,,,,,,,,,,,,,,,,,813.4173990488052,814.46959400177,813.4501240253448,None,,,,,,,,,,,,,,,,,,,,,,,,,,,,,,,,,,,,,,810.9624660015106,None,811.947103023529,None,1,0,811.947103023529,None,1.3398849964141846,1000,001,01,2021_Nov_02_1418,task-switching-replication,2021.2.3,59.9828959599571,
2,14,experiment,01,standing,noswitch,congruant,dashed,square,blue,stimuli/dashed-rectangle.png,stimuli/blue-square.png,2,,,,,,,,,,,,,,,,,,,,,,,,,0,0,0,0,1,0,1,0,0,13,13,13,,,,,,,,,,,,,,,,,,,,,,,,,,,,,,,,,,,,,,,,,,,,,,,,,,,,,,,,,,,,,,,,,,,,,,,,818.4721670150757,None,,,,,,,,,,,,,,,,,,,,,,,,,,,,,,,,,,,,,,,,,,,,,,,,,,,1000,001,01,2021_Nov_02_1418,task-switching-replication,2021.2.3,59.9828959599571,
2,15,experiment,01,standing,switch,incongruant,solid,triangle,blue,stimuli/solid-rectangle.png,stimuli/blue-triangle.png,1,,,,,,,,,,,,,,,,,,,,,,,,,0,0,0,0,1,0,1,0,0,14,14,14,0,0,0,0,,,,,,,,,,,,,,,,,,,,,,,,,,,,,,,,,,,,,,,,,,,,,,,,,,,,,,,,,,,,,,,,,,,,,,,,,,821.1885197162628,822.2383971214294,821.2198221683502,None,,,,,,,,,,,,,,,,,,,,,,,,,,,,,,,,,,818.66890001297,None,819.6532640457153,None,None,0,819.6532640457153,None,,1000,001,01,2021_Nov_02_1418,task-switching-replication,2021.2.3,59.9828959599571,
2,15,experiment,01,standing,switch,incongruant,solid,triangle,blue,stimuli/solid-rectangle.png,stimuli/blue-triangle.png,1,,,,,,,,,,,,,,,,,,,,,,,,,0,0,0,0,1,0,1,0,0,14,14,14,,,,,,,,,,,,,,,,,,,,,,,,,,,,,,,,,,,,,,,,,,,,,,,,,,,,,,,,,,,,,,,,,,,,,,,,826.2375590801239,None,,,,,,,,,,,,,,,,,,,,,,,,,,,,,,,,,,,,,,,,,,,,,,,,,,,1000,001,01,2021_Nov_02_1418,task-switching-replication,2021.2.3,59.9828959599571,
2,16,experiment,01,standing,switch,congruant,dashed,triangle,yellow,stimuli/dashed-rectangle.png,stimuli/yellow-triangle.png,1,,,,,,,,,,,,,,,,,,,,,,,,,0,0,0,0,1,0,1,0,0,15,15,15,,,,,,,,,,,,,,,,,,,,,,,,,,,,,,,,,,,,,,,,,,,,,,,,,,,,,,,,,,,,,,,,,,,,,,,,828.9127340316772,None,,,,,,,,,,,,,,,,,,,,,,,,,,,,,,,,,,,,,,,,,,826.4339361190796,None,827.4181461334229,None,1,1,827.4181461334229,None,1.390531063079834,1000,001,01,2021_Nov_02_1418,task-switching-replication,2021.2.3,59.9828959599571,
2,17,experiment,01,standing,noswitch,incongruant,dashed,square,blue,stimuli/dashed-rectangle.png,stimuli/blue-square.png,2,,,,,,,,,,,,,,,,,,,,,,,,,0,0,0,0,1,0,1,0,0,16,16,16,,,,,,,,,,,,,,,,,,,,,,,,,,,,,,,,,,,,,,,,,,,,,,,,,,,,,,,,,,,,,,,,,,,,,,,,831.0912690162659,None,,,,,,,,,,,,,,,,,,,,,,,,,,,,,,,,,,,,,,,,,,829.1413609981537,None,830.124655008316,None,2,1,830.124655008316,None,0.8132600784301758,1000,001,01,2021_Nov_02_1418,task-switching-replication,2021.2.3,59.9828959599571,
2,18,experiment,01,standing,switch,incongruant,solid,square,blue,stimuli/solid-rectangle.png,stimuli/blue-square.png,1,,,,,,,,,,,,,,,,,,,,,,,,,0,0,0,0,1,0,1,0,0,17,17,17,,,,,,,,,,,,,,,,,,,,,,,,,,,,,,,,,,,,,,,,,,,,,,,,,,,,,,,,,,,,,,,,,,,,,,,,833.4492681026459,None,,,,,,,,,,,,,,,,,,,,,,,,,,,,,,,,,,,,,,,,,,831.3208839893341,None,832.305447101593,None,1,1,832.305447101593,None,0.9854938983917236,1000,001,01,2021_Nov_02_1418,task-switching-replication,2021.2.3,59.9828959599571,
2,19,experiment,01,standing,noswitch,congruant,solid,triangle,blue,stimuli/solid-rectangle.png,stimuli/blue-triangle.png,1,,,,,,,,,,,,,,,,,,,,,,,,,0,0,0,0,1,0,1,0,0,18,18,18,,,,,,,,,,,,,,,,,,,,,,,,,,,,,,,,,,,,,,,,,,,,,,,,,,,,,,,,,,,,,,,,,,,,,,,,835.3304259777069,None,,,,,,,,,,,,,,,,,,,,,,,,,,,,,,,,,,,,,,,,,,833.6783339977264,None,834.6616160869598,None,1,1,834.6616160869598,None,0.5412311553955078,1000,001,01,2021_Nov_02_1418,task-switching-replication,2021.2.3,59.9828959599571,
2,20,experiment,01,standing,switch,incongruant,dashed,square,yellow,stimuli/dashed-rectangle.png,stimuli/yellow-square.png,2,,,,,,,,,,,,,,,,,,,,,,,,,0,0,0,0,1,0,1,0,0,19,19,19,,,,,,,,,,,,,,,,,,,,,,,,,,,,,,,,,,,,,,,,,,,,,,,,,,,,,,,,,,,,,,,,,,,,,,,,837.8027629852295,None,,,,,,,,,,,,,,,,,,,,,,,,,,,,,,,,,,,,,,,,,,835.5593430995941,None,836.54310297966,None,2,1,836.54310297966,None,1.1357040405273438,1000,001,01,2021_Nov_02_1418,task-switching-replication,2021.2.3,59.9828959599571,
2,21,experiment,01,standing,noswitch,congruant,dashed,square,yellow,stimuli/dashed-rectangle.png,stimuli/yellow-square.png,2,,,,,,,,,,,,,,,,,,,,,,,,,0,0,0,0,1,0,1,0,0,20,20,20,,,,,,,,,,,,,,,,,,,,,,,,,,,,,,,,,,,,,,,,,,,,,,,,,,,,,,,,,,,,,,,,,,,,,,,,839.684709072113,None,,,,,,,,,,,,,,,,,,,,,,,,,,,,,,,,,,,,,,,,,,838.0315971374512,None,839.015955209732,None,2,1,839.015955209732,None,0.5238649845123291,1000,001,01,2021_Nov_02_1418,task-switching-replication,2021.2.3,59.9828959599571,
2,22,experiment,01,standing,noswitch,congruant,dashed,square,blue,stimuli/dashed-rectangle.png,stimuli/blue-square.png,2,,,,,,,,,,,,,,,,,,,,,,,,,0,0,0,0,1,0,1,0,0,21,21,21,,,,,0,0,0,0,,,,,,,,,,,,,,,,,,,,,,,,,,,,,,,,,,,,,,,,,,,,,,,,,,,,,,,,,,,,,,,,,,842.013582110405,843.0645840167999,842.0462679862976,None,,,,,,,,,,,,,,,,,,,,,,,,,,,,,,,,,,,,,,839.9145150184631,None,840.8973300457001,None,1,0,840.8973300457001,None,0.9905481338500977,1000,001,01,2021_Nov_02_1418,task-switching-replication,2021.2.3,59.9828959599571,
2,22,experiment,01,standing,noswitch,congruant,dashed,square,blue,stimuli/dashed-rectangle.png,stimuli/blue-square.png,2,,,,,,,,,,,,,,,,,,,,,,,,,0,0,0,0,1,0,1,0,0,21,21,21,,,,,,,,,,,,,,,,,,,,,,,,,,,,,,,,,,,,,,,,,,,,,,,,,,,,,,,,,,,,,,,,,,,,,,,,847.0656461715698,None,,,,,,,,,,,,,,,,,,,,,,,,,,,,,,,,,,,,,,,,,,,,,,,,,,,1000,001,01,2021_Nov_02_1418,task-switching-replication,2021.2.3,59.9828959599571,
2,23,experiment,01,standing,switch,incongruant,solid,square,blue,stimuli/solid-rectangle.png,stimuli/blue-square.png,1,,,,,,,,,,,,,,,,,,,,,,,,,0,0,0,0,1,0,1,0,0,22,22,22,,,,,,,,,,,,,,,,,,,,,,,,,,,,,,,,,,,,,,,,,,,,,,,,,,,,,,,,,,,,,,,,,,,,,,,,849.4443120956421,None,,,,,,,,,,,,,,,,,,,,,,,,,,,,,,,,,,,,,,,,,,847.262176990509,None,848.2450320720673,None,1,1,848.2450320720673,None,1.0996451377868652,1000,001,01,2021_Nov_02_1418,task-switching-replication,2021.2.3,59.9828959599571,
2,24,experiment,01,standing,noswitch,congruant,solid,square,blue,stimuli/solid-rectangle.png,stimuli/blue-square.png,1,,,,,,,,,,,,,,,,,,,,,,,,,0,0,0,0,1,0,1,0,0,23,23,23,,,,,,,,,,,,,,,,,,,,,,,,,,,,,,,,,,,,,,,,,,,,,,,,,,,,,,,,,,,,,,,,,,,,,,,,851.2061920166016,None,,,,,,,,,,,,,,,,,,,,,,,,,,,,,,,,,,,,,,,,,,849.6729381084442,None,850.6558799743652,None,1,1,850.6558799743652,None,0.4347829818725586,1000,001,01,2021_Nov_02_1418,task-switching-replication,2021.2.3,59.9828959599571,
2,25,experiment,01,standing,noswitch,congruant,solid,triangle,blue,stimuli/solid-rectangle.png,stimuli/blue-triangle.png,1,,,,,,,,,,,,,,,,,,,,,,,,,0,0,0,0,1,0,1,0,0,24,24,24,0,0,0,0,,,,,,,,,,,,,,,,,,,,,,,,,,,,,,,,,,,,,,,,,,,,,,,,,,,,,,,,,,,,,,,,,,,,,,,,,,853.7104841470718,854.7618792057037,853.7429211139679,None,,,,,,,,,,,,,,,,,,,,,,,,,,,,,,,,,,851.4350380897522,None,852.4179470539093,None,2,0,852.4179470539093,None,1.191758155822754,1000,001,01,2021_Nov_02_1418,task-switching-replication,2021.2.3,59.9828959599571,
2,25,experiment,01,standing,noswitch,congruant,solid,triangle,blue,stimuli/solid-rectangle.png,stimuli/blue-triangle.png,1,,,,,,,,,,,,,,,,,,,,,,,,,0,0,0,0,1,0,1,0,0,24,24,24,,,,,,,,,,,,,,,,,,,,,,,,,,,,,,,,,,,,,,,,,,,,,,,,,,,,,,,,,,,,,,,,,,,,,,,,858.7628540992737,None,,,,,,,,,,,,,,,,,,,,,,,,,,,,,,,,,,,,,,,,,,,,,,,,,,,1000,001,01,2021_Nov_02_1418,task-switching-replication,2021.2.3,59.9828959599571,
2,26,experiment,01,standing,noswitch,congruant,solid,square,blue,stimuli/solid-rectangle.png,stimuli/blue-square.png,1,,,,,,,,,,,,,,,,,,,,,,,,,0,0,0,0,1,0,1,0,0,25,25,25,,,,,,,,,,,,,,,,,,,,,,,,,,,,,,,,,,,,,,,,,,,,,,,,,,,,,,,,,,,,,,,,,,,,,,,,860.5564870834351,None,,,,,,,,,,,,,,,,,,,,,,,,,,,,,,,,,,,,,,,,,,858.9600610733032,None,859.9443211555481,None,1,1,859.9443211555481,None,0.46846699714660645,1000,001,01,2021_Nov_02_1418,task-switching-replication,2021.2.3,59.9828959599571,
2,27,experiment,01,standing,noswitch,incongruant,solid,triangle,yellow,stimuli/solid-rectangle.png,stimuli/yellow-triangle.png,2,,,,,,,,,,,,,,,,,,,,,,,,,0,0,0,0,1,0,1,0,0,26,26,26,,,,,,,,,,,,,,,,,,,,,,,,,,,,,,,,,,,,,,,,,,,,,,,,,,,,,,,,,,,,,,,,,,,,,,,,862.6138842105865,None,,,,,,,,,,,,,,,,,,,,,,,,,,,,,,,,,,,,,,,,,,860.785197019577,None,861.7684540748596,None,2,1,861.7684540748596,None,0.741063117980957,1000,001,01,2021_Nov_02_1418,task-switching-replication,2021.2.3,59.9828959599571,
2,28,experiment,01,standing,switch,congruant,dashed,square,blue,stimuli/dashed-rectangle.png,stimuli/blue-square.png,2,,,,,,,,,,,,,,,,,,,,,,,,,0,0,0,0,1,0,1,0,0,27,27,27,,,,,0,0,0,0,,,,,,,,,,,,,,,,,,,,,,,,,,,,,,,,,,,,,,,,,,,,,,,,,,,,,,,,,,,,,,,,,,864.7623850107193,865.8150560855865,864.7956681251526,None,,,,,,,,,,,,,,,,,,,,,,,,,,,,,,,,,,,,,,862.8432340621948,None,863.8269879817963,None,1,0,863.8269879817963,None,0.8499958515167236,1000,001,01,2021_Nov_02_1418,task-switching-replication,2021.2.3,59.9828959599571,
2,28,experiment,01,standing,switch,congruant,dashed,square,blue,stimuli/dashed-rectangle.png,stimuli/blue-square.png,2,,,,,,,,,,,,,,,,,,,,,,,,,0,0,0,0,1,0,1,0,0,27,27,27,,,,,,,,,,,,,,,,,,,,,,,,,,,,,,,,,,,,,,,,,,,,,,,,,,,,,,,,,,,,,,,,,,,,,,,,869.8183460235596,None,,,,,,,,,,,,,,,,,,,,,,,,,,,,,,,,,,,,,,,,,,,,,,,,,,,1000,001,01,2021_Nov_02_1418,task-switching-replication,2021.2.3,59.9828959599571,
2,29,experiment,01,standing,noswitch,incongruant,dashed,triangle,blue,stimuli/dashed-rectangle.png,stimuli/blue-triangle.png,1,,,,,,,,,,,,,,,,,,,,,,,,,0,0,0,0,1,0,1,0,0,28,28,28,,,,,,,,,,,,,,,,,,,,,,,,,,,,,,,,,,,,,,,,,,,,,,,,,,,,,,,,,,,,,,,,,,,,,,,,872.1419341564178,None,,,,,,,,,,,,,,,,,,,,,,,,,,,,,,,,,,,,,,,,,,870.0151159763336,None,871.0002701282501,None,1,1,871.0002701282501,None,1.0433950424194336,1000,001,01,2021_Nov_02_1418,task-switching-replication,2021.2.3,59.9828959599571,
2,30,experiment,01,standing,switch,congruant,solid,triangle,blue,stimuli/solid-rectangle.png,stimuli/blue-triangle.png,1,,,,,,,,,,,,,,,,,,,,,,,,,0,0,0,0,1,0,1,0,0,29,29,29,,,,,,,,,,,,,,,,,,,,,,,,,,,,,,,,,,,,,,,,,,,,,,,,,,,,,,,,,,,,,,,,,,,,,,,,873.9662320613861,None,,,,,,,,,,,,,,,,,,,,,,,,,,,,,,,,,,,,,,,,,,872.3711609840393,None,873.3561291694641,None,1,1,873.3561291694641,None,0.47942399978637695,1000,001,01,2021_Nov_02_1418,task-switching-replication,2021.2.3,59.9828959599571,
2,31,experiment,01,standing,switch,congruant,dashed,triangle,yellow,stimuli/dashed-rectangle.png,stimuli/yellow-triangle.png,1,,,,,,,,,,,,,,,,,,,,,,,,,0,0,0,0,1,0,1,0,0,30,30,30,,,,,,,,,,,,,,,,,,,,,,,,,,,,,,,,,,,,,,,,,,,,,,,,,,,,,,,,,,,,,,,,,,,,,,,,875.7895681858063,None,,,,,,,,,,,,,,,,,,,,,,,,,,,,,,,,,,,,,,,,,,874.1949350833893,None,875.1796181201935,None,1,1,875.1796181201935,None,0.5109210014343262,1000,001,01,2021_Nov_02_1418,task-switching-replication,2021.2.3,59.9828959599571,
2,32,experiment,01,standing,switch,incongruant,solid,square,yellow,stimuli/solid-rectangle.png,stimuli/yellow-square.png,2,,,,,,,,,,,,,,,,,,,,,,,,,0,0,0,0,1,0,1,0,0,31,31,31,,,,,,,,,,,,,,,,,,,,,,,,,,,,,,,,,,,,,,,,,,,,,,,,,,,,,,,,,,,,,,,,,,,,,,,,878.56152510643,None,,,,,,,,,,,,,,,,,,,,,,,,,,,,,,,,,,,,,,,,,,876.0188281536102,None,877.00364112854,None,2,1,877.00364112854,None,1.4093289375305176,1000,001,01,2021_Nov_02_1418,task-switching-replication,2021.2.3,59.9828959599571,
2,33,experiment,01,standing,switch,incongruant,dashed,triangle,blue,stimuli/dashed-rectangle.png,stimuli/blue-triangle.png,1,,,,,,,,,,,,,,,,,,,,,,,,,0,0,0,0,1,0,1,0,0,32,32,32,,,,,,,,,,,,,,,,,,,,,,,,,,,,,,,,,,,,,,,,,,,,,,,,,,,,,,,,,,,,,,,,,,,,,,,,880.385537147522,None,,,,,,,,,,,,,,,,,,,,,,,,,,,,,,,,,,,,,,,,,,878.7908940315247,None,879.7755801677704,None,1,1,879.7755801677704,None,0.4861629009246826,1000,001,01,2021_Nov_02_1418,task-switching-replication,2021.2.3,59.9828959599571,
2,34,experiment,01,standing,noswitch,congruant,dashed,triangle,blue,stimuli/dashed-rectangle.png,stimuli/blue-triangle.png,1,,,,,,,,,,,,,,,,,,,,,,,,,0,0,0,0,1,0,1,0,0,33,33,33,,,,,,,,,,,,,,,,,,,,,,,,,,,,,,,,,,,,,,,,,,,,,,,,,,,,,,,,,,,,,,,,,,,,,,,,882.0920720100403,None,,,,,,,,,,,,,,,,,,,,,,,,,,,,,,,,,,,,,,,,,,880.6145350933075,None,881.5995202064514,None,1,1,881.5995202064514,None,0.36798691749572754,1000,001,01,2021_Nov_02_1418,task-switching-replication,2021.2.3,59.9828959599571,
2,35,experiment,01,standing,noswitch,congruant,dashed,triangle,yellow,stimuli/dashed-rectangle.png,stimuli/yellow-triangle.png,1,,,,,,,,,,,,,,,,,,,,,,,,,0,0,0,0,1,0,1,0,0,34,34,34,,,,,,,,,,,,,,,,,,,,,,,,,,,,,,,,,,,,,,,,,,,,,,,,,,,,,,,,,,,,,,,,,,,,,,,,884.387894153595,None,,,,,,,,,,,,,,,,,,,,,,,,,,,,,,,,,,,,,,,,,,882.3206560611725,None,883.304633140564,None,1,1,883.304633140564,None,0.9711110591888428,1000,001,01,2021_Nov_02_1418,task-switching-replication,2021.2.3,59.9828959599571,
2,36,experiment,01,standing,noswitch,congruant,dashed,triangle,blue,stimuli/dashed-rectangle.png,stimuli/blue-triangle.png,1,,,,,,,,,,,,,,,,,,,,,,,,,0,0,0,0,1,0,1,0,0,35,35,35,,,,,,,,,,,,,,,,,,,,,,,,,,,,,,,,,,,,,,,,,,,,,,,,,,,,,,,,,,,,,,,,,,,,,,,,886.2105441093445,None,,,,,,,,,,,,,,,,,,,,,,,,,,,,,,,,,,,,,,,,,,884.6167061328888,None,885.5996119976044,None,1,1,885.5996119976044,None,0.4628617763519287,1000,001,01,2021_Nov_02_1418,task-switching-replication,2021.2.3,59.9828959599571,
2,37,experiment,01,standing,switch,incongruant,solid,square,yellow,stimuli/solid-rectangle.png,stimuli/yellow-square.png,2,,,,,,,,,,,,,,,,,,,,,,,,,0,0,0,0,1,0,1,0,0,36,36,36,,,,,,,,,,,,,,,,,,,,,,,,,,,,,,,,,,,,,,,,,,,,,,,,,,,,,,,,,,,,,,,,,,,,,,,,888.6268601417542,None,,,,,,,,,,,,,,,,,,,,,,,,,,,,,,,,,,,,,,,,,,886.4395430088043,None,887.4233779907227,None,2,1,887.4233779907227,None,1.060209035873413,1000,001,01,2021_Nov_02_1418,task-switching-replication,2021.2.3,59.9828959599571,
2,38,experiment,01,standing,switch,incongruant,dashed,triangle,yellow,stimuli/dashed-rectangle.png,stimuli/yellow-triangle.png,1,,,,,,,,,,,,,,,,,,,,,,,,,0,0,0,0,1,0,1,0,0,37,37,37,,,,,,,,,,,,,,,,,,,,,,,,,,,,,,,,,,,,,,,,,,,,,,,,,,,,,,,,,,,,,,,,,,,,,,,,890.9795169830322,None,,,,,,,,,,,,,,,,,,,,,,,,,,,,,,,,,,,,,,,,,,888.8556890487671,None,889.8391811847687,None,1,1,889.8391811847687,None,1.0403428077697754,1000,001,01,2021_Nov_02_1418,task-switching-replication,2021.2.3,59.9828959599571,
2,39,experiment,01,standing,switch,incongruant,solid,triangle,yellow,stimuli/solid-rectangle.png,stimuli/yellow-triangle.png,2,,,,,,,,,,,,,,,,,,,,,,,,,0,0,0,0,1,0,1,0,0,38,38,38,0,0,0,0,,,,,,,,,,,,,,,,,,,,,,,,,,,,,,,,,,,,,,,,,,,,,,,,,,,,,,,,,,,,,,,,,,,,,,,,,,893.7305896282196,894.7822291851044,893.7618680000305,None,,,,,,,,,,,,,,,,,,,,,,,,,,,,,,,,,,891.2114021778107,None,892.1957650184631,None,None,0,892.1957650184631,None,,1000,001,01,2021_Nov_02_1418,task-switching-replication,2021.2.3,59.9828959599571,
2,39,experiment,01,standing,switch,incongruant,solid,triangle,yellow,stimuli/solid-rectangle.png,stimuli/yellow-triangle.png,2,,,,,,,,,,,,,,,,,,,,,,,,,0,0,0,0,1,0,1,0,0,38,38,38,,,,,,,,,,,,,,,,,,,,,,,,,,,,,,,,,,,,,,,,,,,,,,,,,,,,,,,,,,,,,,,,,,,,,,,,898.7833251953125,None,,,,,,,,,,,,,,,,,,,,,,,,,,,,,,,,,,,,,,,,,,,,,,,,,,,1000,001,01,2021_Nov_02_1418,task-switching-replication,2021.2.3,59.9828959599571,
2,40,experiment,01,standing,noswitch,congruant,solid,triangle,yellow,stimuli/solid-rectangle.png,stimuli/yellow-triangle.png,2,,,,,,,,,,,,,,,,,,,,,,,,,0,0,0,0,1,0,1,0,0,39,39,39,0,0,0,0,,,,,,,,,,,,,,,,,,,,,,,,,,,,,,,,,,,,,,,,,,,,,,,,,,,,,,,,,,,,,,,,,,,,,,,,,,901.4967987537384,902.5459489822388,901.528076171875,None,,,,,,,,,,,,,,,,,,,,,,,,,,,,,,,,,,898.9795980453491,None,899.9626259803772,None,None,0,899.9626259803772,None,,1000,001,01,2021_Nov_02_1418,task-switching-replication,2021.2.3,59.9828959599571,
2,40,experiment,01,standing,noswitch,congruant,solid,triangle,yellow,stimuli/solid-rectangle.png,stimuli/yellow-triangle.png,2,,,,,,,,,,,,,,,,,,,,,,,,,0,0,0,0,1,0,1,0,0,39,39,39,,,,,,,,,,,,,,,,,,,,,,,,,,,,,,,,,,,,,,,,,,,,,,,,,,,,,,,,,,,,,,,,,,,,,,,,906.5451490879059,None,,,,,,,,,,,,,,,,,,,,,,,,,,,,,,,,,,,,,,,,,,,,,,,,,,,1000,001,01,2021_Nov_02_1418,task-switching-replication,2021.2.3,59.9828959599571,
2,41,experiment,01,standing,noswitch,congruant,solid,square,yellow,stimuli/solid-rectangle.png,stimuli/yellow-square.png,2,,,,,,,,,,,,,,,,,,,,,,,,,0,0,0,0,1,0,1,0,0,40,40,40,0,0,0,0,,,,,,,,,,,,,,,,,,,,,,,,,,,,,,,,,,,,,,,,,,,,,,,,,,,,,,,,,,,,,,,,,,,,,,,,,,908.4261461496353,909.477735042572,908.458859205246,None,,,,,,,,,,,,,,,,,,,,,,,,,,,,,,,,,,906.7418920993805,None,907.7267429828644,None,1,0,907.7267429828644,None,0.5939748287200928,1000,001,01,2021_Nov_02_1418,task-switching-replication,2021.2.3,59.9828959599571,
2,41,experiment,01,standing,noswitch,congruant,solid,square,yellow,stimuli/solid-rectangle.png,stimuli/yellow-square.png,2,,,,,,,,,,,,,,,,,,,,,,,,,0,0,0,0,1,0,1,0,0,40,40,40,,,,,,,,,,,,,,,,,,,,,,,,,,,,,,,,,,,,,,,,,,,,,,,,,,,,,,,,,,,,,,,,,,,,,,,,913.4815080165863,None,,,,,,,,,,,,,,,,,,,,,,,,,,,,,,,,,,,,,,,,,,,,,,,,,,,1000,001,01,2021_Nov_02_1418,task-switching-replication,2021.2.3,59.9828959599571,
2,42,experiment,01,standing,switch,congruant,dashed,square,blue,stimuli/dashed-rectangle.png,stimuli/blue-square.png,2,,,,,,,,,,,,,,,,,,,,,,,,,0,0,0,0,1,0,1,0,0,41,41,41,,,,,,,,,,,,,,,,,,,,,,,,,,,,,,,,,,,,,,,,,,,,,,,,,,,,,,,,,,,,,,,,,,,,,,,,916.2179110050201,None,,,,,,,,,,,,,,,,,,,,,,,,,,,,,,,,,,,,,,,,,,913.6783130168915,None,914.6623291969299,None,2,1,914.6623291969299,None,1.4074740409851074,1000,001,01,2021_Nov_02_1418,task-switching-replication,2021.2.3,59.9828959599571,
2,43,experiment,01,standing,noswitch,incongruant,dashed,triangle,blue,stimuli/dashed-rectangle.png,stimuli/blue-triangle.png,1,,,,,,,,,,,,,,,,,,,,,,,,,0,0,0,0,1,0,1,0,0,42,42,42,,,,,0,0,0,0,,,,,,,,,,,,,,,,,,,,,,,,,,,,,,,,,,,,,,,,,,,,,,,,,,,,,,,,,,,,,,,,,,918.6032341718674,919.6551561355591,918.6369471549988,None,,,,,,,,,,,,,,,,,,,,,,,,,,,,,,,,,,,,,,916.4468359947205,None,917.4317231178284,None,2,0,917.4317231178284,None,1.0788121223449707,1000,001,01,2021_Nov_02_1418,task-switching-replication,2021.2.3,59.9828959599571,
2,43,experiment,01,standing,noswitch,incongruant,dashed,triangle,blue,stimuli/dashed-rectangle.png,stimuli/blue-triangle.png,1,,,,,,,,,,,,,,,,,,,,,,,,,0,0,0,0,1,0,1,0,0,42,42,42,,,,,,,,,,,,,,,,,,,,,,,,,,,,,,,,,,,,,,,,,,,,,,,,,,,,,,,,,,,,,,,,,,,,,,,,923.6564440727234,None,,,,,,,,,,,,,,,,,,,,,,,,,,,,,,,,,,,,,,,,,,,,,,,,,,,1000,001,01,2021_Nov_02_1418,task-switching-replication,2021.2.3,59.9828959599571,
2,44,experiment,01,standing,switch,incongruant,solid,triangle,yellow,stimuli/solid-rectangle.png,stimuli/yellow-triangle.png,2,,,,,,,,,,,,,,,,,,,,,,,,,0,0,0,0,1,0,1,0,0,43,43,43,0,0,0,0,,,,,,,,,,,,,,,,,,,,,,,,,,,,,,,,,,,,,,,,,,,,,,,,,,,,,,,,,,,,,,,,,,,,,,,,,,926.190003991127,927.2414782047272,926.2224860191345,None,,,,,,,,,,,,,,,,,,,,,,,,,,,,,,,,,,923.8531250953674,None,924.8380401134491,None,1,0,924.8380401134491,None,1.2413101196289062,1000,001,01,2021_Nov_02_1418,task-switching-replication,2021.2.3,59.9828959599571,
2,44,experiment,01,standing,switch,incongruant,solid,triangle,yellow,stimuli/solid-rectangle.png,stimuli/yellow-triangle.png,2,,,,,,,,,,,,,,,,,,,,,,,,,0,0,0,0,1,0,1,0,0,43,43,43,,,,,,,,,,,,,,,,,,,,,,,,,,,,,,,,,,,,,,,,,,,,,,,,,,,,,,,,,,,,,,,,,,,,,,,,931.2426660060883,None,,,,,,,,,,,,,,,,,,,,,,,,,,,,,,,,,,,,,,,,,,,,,,,,,,,1000,001,01,2021_Nov_02_1418,task-switching-replication,2021.2.3,59.9828959599571,
2,45,experiment,01,standing,noswitch,incongruant,solid,square,blue,stimuli/solid-rectangle.png,stimuli/blue-square.png,1,,,,,,,,,,,,,,,,,,,,,,,,,0,0,0,0,1,0,1,0,0,44,44,44,0,0,0,0,,,,,,,,,,,,,,,,,,,,,,,,,,,,,,,,,,,,,,,,,,,,,,,,,,,,,,,,,,,,,,,,,,,,,,,,,,933.4177221059799,934.4699921607971,933.4510769844055,None,,,,,,,,,,,,,,,,,,,,,,,,,,,,,,,,,,931.4391222000122,None,932.4222431182861,None,2,0,932.4222431182861,None,0.9123399257659912,1000,001,01,2021_Nov_02_1418,task-switching-replication,2021.2.3,59.9828959599571,
2,45,experiment,01,standing,noswitch,incongruant,solid,square,blue,stimuli/solid-rectangle.png,stimuli/blue-square.png,1,,,,,,,,,,,,,,,,,,,,,,,,,0,0,0,0,1,0,1,0,0,44,44,44,,,,,,,,,,,,,,,,,,,,,,,,,,,,,,,,,,,,,,,,,,,,,,,,,,,,,,,,,,,,,,,,,,,,,,,,938.4748780727386,None,,,,,,,,,,,,,,,,,,,,,,,,,,,,,,,,,,,,,,,,,,,,,,,,,,,1000,001,01,2021_Nov_02_1418,task-switching-replication,2021.2.3,59.9828959599571,
2,46,experiment,01,standing,noswitch,incongruant,solid,triangle,yellow,stimuli/solid-rectangle.png,stimuli/yellow-triangle.png,2,,,,,,,,,,,,,,,,,,,,,,,,,0,0,0,0,1,0,1,0,0,45,45,45,0,0,0,0,,,,,,,,,,,,,,,,,,,,,,,,,,,,,,,,,,,,,,,,,,,,,,,,,,,,,,,,,,,,,,,,,,,,,,,,,,940.2963219881058,941.3474450111389,940.3285531997681,None,,,,,,,,,,,,,,,,,,,,,,,,,,,,,,,,,,938.6714580059052,None,939.6555571556091,None,1,0,939.6555571556091,None,0.5396020412445068,1000,001,01,2021_Nov_02_1418,task-switching-replication,2021.2.3,59.9828959599571,
2,46,experiment,01,standing,noswitch,incongruant,solid,triangle,yellow,stimuli/solid-rectangle.png,stimuli/yellow-triangle.png,2,,,,,,,,,,,,,,,,,,,,,,,,,0,0,0,0,1,0,1,0,0,45,45,45,,,,,,,,,,,,,,,,,,,,,,,,,,,,,,,,,,,,,,,,,,,,,,,,,,,,,,,,,,,,,,,,,,,,,,,,945.3507251739502,None,,,,,,,,,,,,,,,,,,,,,,,,,,,,,,,,,,,,,,,,,,,,,,,,,,,1000,001,01,2021_Nov_02_1418,task-switching-replication,2021.2.3,59.9828959599571,
2,47,experiment,01,standing,noswitch,incongruant,solid,triangle,blue,stimuli/solid-rectangle.png,stimuli/blue-triangle.png,1,,,,,,,,,,,,,,,,,,,,,,,,,0,0,0,0,1,0,1,0,0,46,46,46,,,,,,,,,,,,,,,,,,,,,,,,,,,,,,,,,,,,,,,,,,,,,,,,,,,,,,,,,,,,,,,,,,,,,,,,947.613352060318,None,,,,,,,,,,,,,,,,,,,,,,,,,,,,,,,,,,,,,,,,,,945.5472950935364,None,946.5319399833679,None,1,1,946.5319399833679,None,0.984246015548706,1000,001,01,2021_Nov_02_1418,task-switching-replication,2021.2.3,59.9828959599571,
2,48,experiment,01,standing,switch,incongruant,dashed,square,yellow,stimuli/dashed-rectangle.png,stimuli/yellow-square.png,2,,,,,,,,,,,,,,,,,,,,,,,,,0,0,0,0,1,0,1,0,0,47,47,47,,,,,0,0,0,0,,,,,,,,,,,,,,,,,,,,,,,,,,,,,,,,,,,,,,,,,,,,,,,,,,,,,,,,,,,,,,,,,,950.2349900007248,951.286835193634,950.268846988678,None,,,,,,,,,,,,,,,,,,,,,,,,,,,,,,,,,,,,,,947.8429431915283,None,948.8274390697479,None,1,0,948.8274390697479,None,1.3109071254730225,1000,001,01,2021_Nov_02_1418,task-switching-replication,2021.2.3,59.9828959599571,
2,48,experiment,01,standing,switch,incongruant,dashed,square,yellow,stimuli/dashed-rectangle.png,stimuli/yellow-square.png,2,,,,,,,,,,,,,,,,,,,,,,,,,0,0,0,0,1,0,1,0,0,47,47,47,,,,,,,,,,,,,,,,,,,,,,,,,,,,,,,,,,,,,,,,,,,,,,,,,,,,,,,,,,,,,,,,,,,,,,,,955.2906429767609,None,,,,,,,,,,,,,,,,,,,,,,,,,,,,,,,,,,,,,,,,,,,,,,,,,,,1000,001,01,2021_Nov_02_1418,task-switching-replication,2021.2.3,59.9828959599571,
2,49,experiment,01,standing,noswitch,incongruant,dashed,triangle,yellow,stimuli/dashed-rectangle.png,stimuli/yellow-triangle.png,1,,,,,,,,,,,,,,,,,,,,,,,,,0,0,0,0,1,0,1,0,0,48,48,48,,,,,,,,,,,,,,,,,,,,,,,,,,,,,,,,,,,,,,,,,,,,,,,,,,,,,,,,,,,,,,,,,,,,,,,,957.081139087677,None,,,,,,,,,,,,,,,,,,,,,,,,,,,,,,,,,,,,,,,,,,955.4870669841766,None,956.4714760780334,None,1,1,956.4714760780334,None,0.4698350429534912,1000,001,01,2021_Nov_02_1418,task-switching-replication,2021.2.3,59.9828959599571,
,,,01,,,,,,,,,,,,,,,,,,,,,,,,,,,,,,,,,,0,0,0,0,1,0,1,0,,,,,,,,,,,,,,,,,,,,,,,,,,,,,,,,,,,,,,,,,,,,,,,,,,,,,,,,,,,,,,,,,,,,,,,,,,,,,,,,,,,,,,,,,,,,,,,,,,,,,,,,,,,,,,,,,,,,,,,,,,,,,,,,1000,001,01,2021_Nov_02_1418,task-switching-replication,2021.2.3,59.9828959599571,
3,1,experiment,01,standing,buffer,buffer,solid,triangle,blue,stimuli/solid-rectangle.png,stimuli/blue-triangle.png,1,,,,,,,,,,,,,,,,,,,,,,,,,0,0,0,0,2,0,2,0,0,0,0,0,0,0,0,0,,,,,,,,,,,,,,,,,,,,,,,,,,,,,,,,,,,,,,,,,,,,,,,,,,,,,,,,,,,,,,,,,,,,,,,,,,965.6399307250977,966.6913640499115,965.6713449954987,None,,,,,,,,,,,,,,,,,,,,,,957.3109312057495,None,2,2.880579948425293,957.3109312057495,None,960.2781901359558,None,2,2.720136880874634,960.2781901359558,None,963.1167190074921,None,964.1002061367035,None,None,0,964.1002061367035,None,,1000,001,01,2021_Nov_02_1418,task-switching-replication,2021.2.3,59.9828959599571,
3,1,experiment,01,standing,buffer,buffer,solid,triangle,blue,stimuli/solid-rectangle.png,stimuli/blue-triangle.png,1,,,,,,,,,,,,,,,,,,,,,,,,,0,0,0,0,2,0,2,0,0,0,0,0,,,,,,,,,,,,,,,,,,,,,,,,,,,,,,,,,,,,,,,,,,,,,,,,,,,,,,,,,,,,,,,,,,,,,,,,970.6972420215607,None,,,,,,,,,,,,,,,,,,,,,,,,,,,,,,,,,,,,,,,,,,,,,,,,,,,1000,001,01,2021_Nov_02_1418,task-switching-replication,2021.2.3,59.9828959599571,
3,2,experiment,01,standing,noswitch,congruant,solid,triangle,blue,stimuli/solid-rectangle.png,stimuli/blue-triangle.png,1,,,,,,,,,,,,,,,,,,,,,,,,,0,0,0,0,2,0,2,0,0,1,1,1,,,,,,,,,,,,,,,,,,,,,,,,,,,,,,,,,,,,,,,,,,,,,,,,,,,,,,,,,,,,,,,,,,,,,,,,972.9668390750885,None,,,,,,,,,,,,,,,,,,,,,,,,,,,,,,,,,,,,,,,,,,970.8942651748657,None,971.8788809776306,None,1,1,971.8788809776306,None,0.8733119964599609,1000,001,01,2021_Nov_02_1418,task-switching-replication,2021.2.3,59.9828959599571,
3,3,experiment,01,standing,noswitch,congruant,solid,square,blue,stimuli/solid-rectangle.png,stimuli/blue-square.png,1,,,,,,,,,,,,,,,,,,,,,,,,,0,0,0,0,2,0,2,0,0,2,2,2,,,,,,,,,,,,,,,,,,,,,,,,,,,,,,,,,,,,,,,,,,,,,,,,,,,,,,,,,,,,,,,,,,,,,,,,974.7840449810028,None,,,,,,,,,,,,,,,,,,,,,,,,,,,,,,,,,,,,,,,,,,973.1320040225983,None,974.1157720088959,None,1,1,974.1157720088959,None,0.5183200836181641,1000,001,01,2021_Nov_02_1418,task-switching-replication,2021.2.3,59.9828959599571,
3,4,experiment,01,standing,switch,congruant,dashed,triangle,blue,stimuli/dashed-rectangle.png,stimuli/blue-triangle.png,1,,,,,,,,,,,,,,,,,,,,,,,,,0,0,0,0,2,0,2,0,0,3,3,3,,,,,0,0,0,0,,,,,,,,,,,,,,,,,,,,,,,,,,,,,,,,,,,,,,,,,,,,,,,,,,,,,,,,,,,,,,,,,,977.1081789731979,978.1606621742249,977.141205072403,None,,,,,,,,,,,,,,,,,,,,,,,,,,,,,,,,,,,,,,975.0127789974213,None,975.9964292049408,None,2,0,975.9964292049408,None,1.0382318496704102,1000,001,01,2021_Nov_02_1418,task-switching-replication,2021.2.3,59.9828959599571,
