blockNum,trialNum,trialType,condition,posture,switchTrialType,congruantTrialType,cueType,shapeType,shapeColor,cueFileName,stimuliFileName,correctAnswer,untimedTrials.thisRepN,untimedTrials.thisTrialN,untimedTrials.thisN,untimedTrials.thisIndex,selectSolid1.thisRepN,selectSolid1.thisTrialN,selectSolid1.thisN,selectSolid1.thisIndex,selectDashed1.thisRepN,selectDashed1.thisTrialN,selectDashed1.thisN,selectDashed1.thisIndex,timedTrials.thisRepN,timedTrials.thisTrialN,timedTrials.thisN,timedTrials.thisIndex,selectSolid2.thisRepN,selectSolid2.thisTrialN,selectSolid2.thisN,selectSolid2.thisIndex,selectDashed2.thisRepN,selectDashed2.thisTrialN,selectDashed2.thisN,selectDashed2.thisIndex,postures.thisRepN,postures.thisTrialN,postures.thisN,postures.thisIndex,blocks.thisRepN,blocks.thisTrialN,blocks.thisN,blocks.thisIndex,trials.thisRepN,trials.thisTrialN,trials.thisN,trials.thisIndex,selectSolid.thisRepN,selectSolid.thisTrialN,selectSolid.thisN,selectSolid.thisIndex,selectDashed.thisRepN,selectDashed.thisTrialN,selectDashed.thisN,selectDashed.thisIndex,text_3.started,text_3.stopped,key_resp_2.keys,key_resp_2.rt,key_resp_2.started,key_resp_2.stopped,image_4.started,image_4.stopped,key_resp_4.keys,key_resp_4.rt,key_resp_4.started,key_resp_4.stopped,image_5.started,image_5.stopped,key_resp_5.keys,key_resp_5.rt,key_resp_5.started,key_resp_5.stopped,image_6.started,image_6.stopped,key_resp_6.keys,key_resp_6.rt,key_resp_6.started,key_resp_6.stopped,image_7.started,image_7.stopped,key_resp_7.keys,key_resp_7.rt,key_resp_7.started,key_resp_7.stopped,image_8.started,image_8.stopped,key_resp_8.keys,key_resp_8.rt,key_resp_8.started,key_resp_8.stopped,image_9.started,image_9.stopped,key_resp_9.keys,key_resp_9.rt,key_resp_9.started,key_resp_9.stopped,image_10.started,image_10.stopped,key_resp_10.keys,key_resp_10.rt,key_resp_10.started,key_resp_10.stopped,image_11.started,image_11.stopped,key_resp_11.keys,key_resp_11.rt,key_resp_11.started,key_resp_11.stopped,cue_untimed_image.started,cue_untimed_image.stopped,stimuli_untimed_image.started,stimuli_untimed_image.stopped,untimed_resp.keys,untimed_resp.corr,untimed_resp.rt,untimed_resp.started,untimed_resp.stopped,text_2.started,text_2.stopped,sound_1.started,sound_1.stopped,image_2.started,image_2.stopped,image_12.started,image_12.stopped,key_resp_12.keys,key_resp_12.rt,key_resp_12.started,key_resp_12.stopped,image_13.started,image_13.stopped,key_resp_13.keys,key_resp_13.rt,key_resp_13.started,key_resp_13.stopped,cue_timed_image.started,cue_timed_image.stopped,stimuli_timed_image.started,stimuli_timed_image.stopped,timed_resp.keys,timed_resp.corr,timed_resp.rt,timed_resp.started,timed_resp.stopped,image.started,image.stopped,key_response.keys,key_response.rt,key_response.started,key_response.stopped,text.started,text.stopped,key_resp.keys,key_resp.rt,key_resp.started,key_resp.stopped,cue_image.started,cue_image.stopped,stimuli_image.started,stimuli_image.stopped,exp_resp.keys,exp_resp.corr,exp_resp.rt,exp_resp.started,exp_resp.stopped,sound_2.started,sound_2.stopped,image_3.started,image_3.stopped,participant,session,condition,date,expName,psychopyVersion,frameRate,
,,,09,,,,,,,,,,,,,,,,,,,,,,,,,,,,,,,,,,,,,,,,,,,,,,,,,,,,,,9.072041988372803,None,2,14.094449996948242,9.072041988372803,None,,,,,,,,,,,,,,,,,,,,,,,,,,,,,,,,,,,,,,,,,,,,,,,,,,,,,,,,,,,,,,,,,,,,,,,,,,,,,,,,,,,,,,,,,,,,,,,,,,,,,,,,,,,,,,1000,001,09,2021_Nov_02_1532,task-switching-replication,2021.2.3,60.005980133937825,
,,,09,,,,,,,,,,,,,,,,,,,,,,,,,,,,,,,,,,,,,,,,,,,,,,,,,,,,,,,,,,,,23.216200828552246,None,2,0.8933589458465576,23.216200828552246,None,,,,,,,,,,,,,,,,,,,,,,,,,,,,,,,,,,,,,,,,,,,,,,,,,,,,,,,,,,,,,,,,,,,,,,,,,,,,,,,,,,,,,,,,,,,,,,,,,,,,,,,,1000,001,09,2021_Nov_02_1532,task-switching-replication,2021.2.3,60.005980133937825,
,,,09,,,,,,,,,,,,,,,,,,,,,,,,,,,,,,,,,,,,,,,,,,,,,,,,,,,,,,,,,,,,,,,,,,24.15747904777527,None,1,12.037906885147095,24.15747904777527,None,,,,,,,,,,,,,,,,,,,,,,,,,,,,,,,,,,,,,,,,,,,,,,,,,,,,,,,,,,,,,,,,,,,,,,,,,,,,,,,,,,,,,,,,,,,,,,,,,,1000,001,09,2021_Nov_02_1532,task-switching-replication,2021.2.3,60.005980133937825,
,,,09,,,,,,,,,,,,,,,,,,,,,,,,,,,,,,,,,,,,,,,,,,,,,,,,,,,,,,,,,,,,,,,,,,,,,,,,36.31128287315369,None,2,10.727158069610596,36.31128287315369,None,,,,,,,,,,,,,,,,,,,,,,,,,,,,,,,,,,,,,,,,,,,,,,,,,,,,,,,,,,,,,,,,,,,,,,,,,,,,,,,,,,,,,,,,,,,,1000,001,09,2021_Nov_02_1532,task-switching-replication,2021.2.3,60.005980133937825,
,,,09,,,,,,,,,,,,,,,,,,,,,,,,,,,,,,,,,,,,,,,,,,,,,,,,,,,,,,,,,,,,,,,,,,,,,,,,,,,,,,47.120216846466064,None,2,3.6771509647369385,47.120216846466064,None,,,,,,,,,,,,,,,,,,,,,,,,,,,,,,,,,,,,,,,,,,,,,,,,,,,,,,,,,,,,,,,,,,,,,,,,,,,,,,,,,,,,,,1000,001,09,2021_Nov_02_1532,task-switching-replication,2021.2.3,60.005980133937825,
,,,09,,,,,,,,,,,,,,,,,,,,,,,,,,,,,,,,,,,,,,,,,,,,,,,,,,,,,,,,,,,,,,,,,,,,,,,,,,,,,,,,,,,,50.87645983695984,None,1,4.757624864578247,50.87645983695984,None,,,,,,,,,,,,,,,,,,,,,,,,,,,,,,,,,,,,,,,,,,,,,,,,,,,,,,,,,,,,,,,,,,,,,,,,,,,,,,,,1000,001,09,2021_Nov_02_1532,task-switching-replication,2021.2.3,60.005980133937825,
,,,09,,,,,,,,,,,,,,,,,,,,,,,,,,,,,,,,,,,,,,,,,,,,,,,,,,,,,,,,,,,,,,,,,,,,,,,,,,,,,,,,,,,,,,,,,,55.729470014572144,None,2,2.4389679431915283,55.729470014572144,None,,,,,,,,,,,,,,,,,,,,,,,,,,,,,,,,,,,,,,,,,,,,,,,,,,,,,,,,,,,,,,,,,,,,,,,,,,1000,001,09,2021_Nov_02_1532,task-switching-replication,2021.2.3,60.005980133937825,
,,,09,,,,,,,,,,,,,,,,,,,,,,,,,,,,,,,,,,,,,,,,,,,,,,,,,,,,,,,,,,,,,,,,,,,,,,,,,,,,,,,,,,,,,,,,,,,,,,,,58.27610492706299,None,2,2.6700451374053955,58.27610492706299,None,,,,,,,,,,,,,,,,,,,,,,,,,,,,,,,,,,,,,,,,,,,,,,,,,,,,,,,,,,,,,,,,,,,,1000,001,09,2021_Nov_02_1532,task-switching-replication,2021.2.3,60.005980133937825,
,,,09,,,,,,,,,,,,,,,,,,,,,,,,,,,,,,,,,,,,,,,,,,,,,,,,,,,,,,,,,,,,,,,,,,,,,,,,,,,,,,,,,,,,,,,,,,,,,,,,,,,,,,61.06123399734497,None,2,6.356032848358154,61.06123399734497,None,,,,,,,,,,,,,,,,,,,,,,,,,,,,,,,,,,,,,,,,,,,,,,,,,,,,,,,,,,,,,,1000,001,09,2021_Nov_02_1532,task-switching-replication,2021.2.3,60.005980133937825,
1,1,untimed,09,sitting,buffer,buffer,solid,square,yellow,stimuli/solid-rectangle.png,stimuli/yellow-square.png,2,0,0,0,0,,,,,,,,,,,,,,,,,,,,,,,,,,,,,,,,,,,,,,,,,,,,,,,,,,,,,,,,,,,,,,,,,,,,,,,,,,,,,,,,,,,,,,,,,,,,,,,67.55329203605652,None,68.55348587036133,None,2,1,0.828667163848877,68.55348587036133,None,69.52889800071716,None,,,,,,,,,,,,,,,,,,,,,,,,,,,,,,,,,,,,,,,,,,,,,,,,,,,1000,001,09,2021_Nov_02_1532,task-switching-replication,2021.2.3,60.005980133937825,
1,2,untimed,09,sitting,switch,congruant,dashed,square,yellow,stimuli/dashed-rectangle.png,stimuli/yellow-square.png,2,0,1,1,1,,,,,,,,,,,,,,,,,,,,,,,,,,,,,,,,,,,,,,,,,,,,,,,,,,,,,,,,,,,,,,,,,,,,,,,,,,,,,,,,,,,,,,,,,,,,,,,69.7585039138794,None,70.7278459072113,None,2,1,0.8552889823913574,70.7278459072113,None,71.70270991325378,None,,,,,,,,,,,,,,,,,,,,,,,,,,,,,,,,,,,,,,,,,,,,,,,,,,,1000,001,09,2021_Nov_02_1532,task-switching-replication,2021.2.3,60.005980133937825,
1,3,untimed,09,sitting,switch,congruant,solid,square,yellow,stimuli/solid-rectangle.png,stimuli/yellow-square.png,2,0,2,2,2,,,,,,,,,,,,,,,,,,,,,,,,,,,,,,,,,,,,,,,,,,,,,,,,,,,,,,,,,,,,,,,,,,,,,,,,,,,,,,,,,,,,,,,,,,,,,,,71.93502283096313,None,72.93517303466797,None,2,1,0.5889809131622314,72.93517303466797,None,73.66995191574097,None,,,,,,,,,,,,,,,,,,,,,,,,,,,,,,,,,,,,,,,,,,,,,,,,,,,1000,001,09,2021_Nov_02_1532,task-switching-replication,2021.2.3,60.005980133937825,
1,4,untimed,09,sitting,noswitch,incongruant,solid,triangle,blue,stimuli/solid-rectangle.png,stimuli/blue-triangle.png,1,0,3,3,3,,,,,,,,,,,,,,,,,,,,,,,,,,,,,,,,,,,,,,,,,,,,,,,,,,,,,,,,,,,,,,,,,,,,,,,,,,,,,,,,,,,,,,,,,,,,,,,73.89936304092407,None,74.90041399002075,None,1,1,0.29166698455810547,74.90041399002075,None,75.33636784553528,None,,,,,,,,,,,,,,,,,,,,,,,,,,,,,,,,,,,,,,,,,,,,,,,,,,,1000,001,09,2021_Nov_02_1532,task-switching-replication,2021.2.3,60.005980133937825,
1,5,untimed,09,sitting,noswitch,congruant,solid,square,blue,stimuli/solid-rectangle.png,stimuli/blue-square.png,1,0,4,4,4,0,0,0,0,,,,,,,,,,,,,,,,,,,,,,,,,,,,,,,,,,,,,,,,,,,,,,,,,,,,,,,,,,,,,,,,,,,,,,,,,,,,,,,,,,,,,,,,,,,75.56603288650513,None,76.56510305404663,None,2,0,0.7171359062194824,76.56510305404663,None,,,77.39424705505371,78.44525694847107,77.42630386352539,None,,,,,,,,,,,,,,,,,,,,,,,,,,,,,,,,,,,,,,,,,,,,,,,1000,001,09,2021_Nov_02_1532,task-switching-replication,2021.2.3,60.005980133937825,
1,5,untimed,09,sitting,noswitch,congruant,solid,square,blue,stimuli/solid-rectangle.png,stimuli/blue-square.png,1,0,4,4,4,,,,,,,,,,,,,,,,,,,,,,,,,,,,,,,,,,,,,,,,,,,,,,,,,,,,,,,,,,,,,,,,,,,,,,,,,,,,,,,,,,,,,,,,,,,,,,,,,,,,,,,,82.44857096672058,None,,,,,,,,,,,,,,,,,,,,,,,,,,,,,,,,,,,,,,,,,,,,,,,,,,,1000,001,09,2021_Nov_02_1532,task-switching-replication,2021.2.3,60.005980133937825,
1,6,untimed,09,sitting,switch,congruant,dashed,triangle,blue,stimuli/dashed-rectangle.png,stimuli/blue-triangle.png,1,0,5,5,5,,,,,,,,,,,,,,,,,,,,,,,,,,,,,,,,,,,,,,,,,,,,,,,,,,,,,,,,,,,,,,,,,,,,,,,,,,,,,,,,,,,,,,,,,,,,,,,82.64550805091858,None,83.6463508605957,None,1,1,0.4225320816040039,83.6463508605957,None,84.20278286933899,None,,,,,,,,,,,,,,,,,,,,,,,,,,,,,,,,,,,,,,,,,,,,,,,,,,,1000,001,09,2021_Nov_02_1532,task-switching-replication,2021.2.3,60.005980133937825,
1,7,untimed,09,sitting,noswitch,incongruant,dashed,square,blue,stimuli/dashed-rectangle.png,stimuli/blue-square.png,2,0,6,6,6,,,,,,,,,,,,,,,,,,,,,,,,,,,,,,,,,,,,,,,,,,,,,,,,,,,,,,,,,,,,,,,,,,,,,,,,,,,,,,,,,,,,,,,,,,,,,,,84.43215298652649,None,85.43337297439575,None,2,1,0.34099698066711426,85.43337297439575,None,85.86872005462646,None,,,,,,,,,,,,,,,,,,,,,,,,,,,,,,,,,,,,,,,,,,,,,,,,,,,1000,001,09,2021_Nov_02_1532,task-switching-replication,2021.2.3,60.005980133937825,
1,8,untimed,09,sitting,noswitch,incongruant,dashed,triangle,blue,stimuli/dashed-rectangle.png,stimuli/blue-triangle.png,1,0,7,7,7,,,,,,,,,,,,,,,,,,,,,,,,,,,,,,,,,,,,,,,,,,,,,,,,,,,,,,,,,,,,,,,,,,,,,,,,,,,,,,,,,,,,,,,,,,,,,,,86.09855794906616,None,87.09937787055969,None,1,1,0.48252201080322266,87.09937787055969,None,87.71578788757324,None,,,,,,,,,,,,,,,,,,,,,,,,,,,,,,,,,,,,,,,,,,,,,,,,,,,1000,001,09,2021_Nov_02_1532,task-switching-replication,2021.2.3,60.005980133937825,
1,9,untimed,09,sitting,switch,incongruant,solid,triangle,yellow,stimuli/solid-rectangle.png,stimuli/yellow-triangle.png,2,0,8,8,8,,,,,,,,,,,,,,,,,,,,,,,,,,,,,,,,,,,,,,,,,,,,,,,,,,,,,,,,,,,,,,,,,,,,,,,,,,,,,,,,,,,,,,,,,,,,,,,87.94477701187134,None,88.94562697410583,None,2,1,0.7786350250244141,88.94562697410583,None,89.86350798606873,None,,,,,,,,,,,,,,,,,,,,,,,,,,,,,,,,,,,,,,,,,,,,,,,,,,,1000,001,09,2021_Nov_02_1532,task-switching-replication,2021.2.3,60.005980133937825,
1,10,untimed,09,sitting,switch,incongruant,dashed,triangle,yellow,stimuli/dashed-rectangle.png,stimuli/yellow-triangle.png,1,0,9,9,9,,,,,,,,,,,,,,,,,,,,,,,,,,,,,,,,,,,,,,,,,,,,,,,,,,,,,,,,,,,,,,,,,,,,,,,,,,,,,,,,,,,,,,,,,,,,,,,90.09285688400269,None,91.09321999549866,None,1,1,0.607903003692627,91.09321999549866,None,91.8307888507843,None,,,,,,,,,,,,,,,,,,,,,,,,,,,,,,,,,,,,,,,,,,,,,,,,,,,1000,001,09,2021_Nov_02_1532,task-switching-replication,2021.2.3,60.005980133937825,
1,11,untimed,09,sitting,switch,incongruant,solid,triangle,yellow,stimuli/solid-rectangle.png,stimuli/yellow-triangle.png,2,0,10,10,10,,,,,,,,,,,,,,,,,,,,,,,,,,,,,,,,,,,,,,,,,,,,,,,,,,,,,,,,,,,,,,,,,,,,,,,,,,,,,,,,,,,,,,,,,,,,,,,92.05998206138611,None,93.06084084510803,None,2,1,0.42934083938598633,93.06084084510803,None,93.61911296844482,None,,,,,,,,,,,,,,,,,,,,,,,,,,,,,,,,,,,,,,,,,,,,,,,,,,,1000,001,09,2021_Nov_02_1532,task-switching-replication,2021.2.3,60.005980133937825,
1,12,untimed,09,sitting,switch,congruant,dashed,square,yellow,stimuli/dashed-rectangle.png,stimuli/yellow-square.png,2,0,11,11,11,,,,,,,,,,,,,,,,,,,,,,,,,,,,,,,,,,,,,,,,,,,,,,,,,,,,,,,,,,,,,,,,,,,,,,,,,,,,,,,,,,,,,,,,,,,,,,,93.84910488128662,None,94.85050892829895,None,2,1,0.30457615852355957,94.85050892829895,None,95.28695106506348,None,,,,,,,,,,,,,,,,,,,,,,,,,,,,,,,,,,,,,,,,,,,,,,,,,,,1000,001,09,2021_Nov_02_1532,task-switching-replication,2021.2.3,60.005980133937825,
,,,09,,,,,,,,,,,,,,,,,,,,,,,,,,,,,,,,,,,,,,,,,,,,,,,,,,,,,,,,,,,,,,,,,,,,,,,,,,,,,,,,,,,,,,,,,,,,,,,,,,,,,,,,,,,,,,,,,,,,,,,,,,,95.51683497428894,None,2,9.834244966506958,95.51683497428894,None,,,,,,,,,,,,,,,,,,,,,,,,,,,,,,,,,,,,,,,,,1000,001,09,2021_Nov_02_1532,task-switching-replication,2021.2.3,60.005980133937825,
,,,09,,,,,,,,,,,,,,,,,,,,,,,,,,,,,,,,,,,,,,,,,,,,,,,,,,,,,,,,,,,,,,,,,,,,,,,,,,,,,,,,,,,,,,,,,,,,,,,,,,,,,,,,,,,,,,,,,,,,,,,,,,,,,,,,,105.4717948436737,None,2,2.6431667804718018,105.4717948436737,None,,,,,,,,,,,,,,,,,,,,,,,,,,,,,,,,,,,1000,001,09,2021_Nov_02_1532,task-switching-replication,2021.2.3,60.005980133937825,
1,1,timed,09,sitting,buffer,buffer,dashed,square,yellow,stimuli/dashed-rectangle.png,stimuli/yellow-square.png,2,,,,,,,,,,,,,0,0,0,0,,,,,,,,,,,,,,,,,,,,,,,,,,,,,,,,,,,,,,,,,,,,,,,,,,,,,,,,,,,,,,,,,,,,,,,,,,,,,,,,,,,,,,,,,,,,109.65014004707336,None,,,,,,,,,,,,,,,,,108.23275184631348,None,109.21722102165222,None,2,1,0.3168039321899414,109.21722102165222,None,,,,,,,,,,,,,,,,,,,,,,,,,,1000,001,09,2021_Nov_02_1532,task-switching-replication,2021.2.3,60.005980133937825,
1,2,timed,09,sitting,noswitch,congruant,dashed,square,yellow,stimuli/dashed-rectangle.png,stimuli/yellow-square.png,2,,,,,,,,,,,,,0,1,1,1,,,,,,,,,,,,,,,,,,,,,,,,,,,,,,,,,,,,,,,,,,,,,,,,,,,,,,,,,,,,,,,,,,,,,,,,,,,,,,,,,,,,,,,,,,,,111.29542088508606,None,,,,,,,,,,,,,,,,,109.87924098968506,None,110.86304092407227,None,2,1,0.3300158977508545,110.86304092407227,None,,,,,,,,,,,,,,,,,,,,,,,,,,1000,001,09,2021_Nov_02_1532,task-switching-replication,2021.2.3,60.005980133937825,
1,3,timed,09,sitting,switch,incongruant,solid,square,blue,stimuli/solid-rectangle.png,stimuli/blue-square.png,1,,,,,,,,,,,,,0,2,2,2,,,,,,,,,,,,,,,,,,,,,,,,,,,,,,,,,,,,,,,,,,,,,,,,,,,,,,,,,,,,,,,,,,,,,,,,,,,,,,,,,,,,,,,,,,,,113.05856394767761,None,,,,,,,,,,,,,,,,,111.52444791793823,None,112.50841403007507,None,1,1,0.4483318328857422,112.50841403007507,None,,,,,,,,,,,,,,,,,,,,,,,,,,1000,001,09,2021_Nov_02_1532,task-switching-replication,2021.2.3,60.005980133937825,
1,4,timed,09,sitting,switch,incongruant,dashed,square,blue,stimuli/dashed-rectangle.png,stimuli/blue-square.png,2,,,,,,,,,,,,,0,3,3,3,,,,,,,,,,,,,,,,,,,,,,,,,,,,,,,,,,,,,,,,,,,,,,,,,,,,,,,,,,,,,,,,,,,,,,,,,,,,,,,,,,,,,,,,,,,,114.93945002555847,None,,,,,,,,,,,,,,,,,113.2869279384613,None,114.26974391937256,None,2,1,0.516369104385376,114.26974391937256,None,,,,,,,,,,,,,,,,,,,,,,,,,,1000,001,09,2021_Nov_02_1532,task-switching-replication,2021.2.3,60.005980133937825,
1,5,timed,09,sitting,noswitch,incongruant,dashed,triangle,blue,stimuli/dashed-rectangle.png,stimuli/blue-triangle.png,1,,,,,,,,,,,,,0,4,4,4,,,,,,,,,,,,,,,,,,,,,,,,,,,,,,,,,,,,,,,,,,,,,,,,,,,,,,,,,,,,,,,,,,,,,,,,,,,,,,,,,,,,,,,,,,,,116.52518701553345,None,,,,,,,,,,,,,,,,,115.16803884506226,None,116.15223789215088,None,1,1,0.2747328281402588,116.15223789215088,None,,,,,,,,,,,,,,,,,,,,,,,,,,1000,001,09,2021_Nov_02_1532,task-switching-replication,2021.2.3,60.005980133937825,
1,6,timed,09,sitting,switch,incongruant,solid,square,yellow,stimuli/solid-rectangle.png,stimuli/yellow-square.png,2,,,,,,,,,,,,,0,5,5,5,,,,,,,,,,,,,,,,,,,,,,,,,,,,,,,,,,,,,,,,,,,,,,,,,,,,,,,,,,,,,,,,,,,,,,,,,,,,,,,,,,,,,,,,,,,,118.46603894233704,None,,,,,,,,,,,,,,,,,116.75378584861755,None,117.73787188529968,None,2,1,0.5845170021057129,117.73787188529968,None,,,,,,,,,,,,,,,,,,,,,,,,,,1000,001,09,2021_Nov_02_1532,task-switching-replication,2021.2.3,60.005980133937825,
1,7,timed,09,sitting,switch,congruant,dashed,square,blue,stimuli/dashed-rectangle.png,stimuli/blue-square.png,2,,,,,,,,,,,,,0,6,6,6,,,,,,,,,,,,,,,,,,,,,,,,,,,,,,,,,,,,,,,,,,,,,,,,,,,,,,,,,,,,,,,,,,,,,,,,,,,,,,,,,,,,,,,,,,,,120.81920099258423,None,,,,,,,,,,,,,,,,,118.6950888633728,None,119.67892289161682,None,2,1,0.9960789680480957,119.67892289161682,None,,,,,,,,,,,,,,,,,,,,,,,,,,1000,001,09,2021_Nov_02_1532,task-switching-replication,2021.2.3,60.005980133937825,
1,8,timed,09,sitting,switch,congruant,solid,square,yellow,stimuli/solid-rectangle.png,stimuli/yellow-square.png,2,,,,,,,,,,,,,0,7,7,7,,,,,,,,,,,,,,,,,,,,,,,,,,,,,,,,,,,,,,,,,,,,,,,,,,,,,,,,,,,,,,,,,,,,,,,,,,,,,,,,,,,,,,,,,,,,122.75970888137817,None,,,,,,,,,,,,,,,,,121.04799294471741,None,122.03184700012207,None,2,1,0.6021149158477783,122.03184700012207,None,,,,,,,,,,,,,,,,,,,,,,,,,,1000,001,09,2021_Nov_02_1532,task-switching-replication,2021.2.3,60.005980133937825,
1,9,timed,09,sitting,switch,incongruant,dashed,triangle,blue,stimuli/dashed-rectangle.png,stimuli/blue-triangle.png,1,,,,,,,,,,,,,0,8,8,8,,,,,,,,,,,,,,,,,,,,,,,,,,,,,,,,,,,,,,,,,,,,,,,,,,,,,,,,,,,,,,,,,,,,,,,,,,,,,,,,,,,,,,,,,,,,124.4689679145813,None,,,,,,,,,,,,,,,,,122.98855400085449,None,123.97323799133301,None,1,1,0.35758304595947266,123.97323799133301,None,,,,,,,,,,,,,,,,,,,,,,,,,,1000,001,09,2021_Nov_02_1532,task-switching-replication,2021.2.3,60.005980133937825,
1,10,timed,09,sitting,switch,incongruant,solid,triangle,yellow,stimuli/solid-rectangle.png,stimuli/yellow-triangle.png,2,,,,,,,,,,,,,0,9,9,9,,,,,,,,,,,,,,,,,,,,,,,,,,,,,,,,,,,,,,,,,,,,,,,,,,,,,,,,,,,,,,,,,,,,,,,,,,,,,,,,,,,,,,,,,,,,126.23108696937561,None,,,,,,,,,,,,,,,,,124.69719791412354,None,125.68114590644836,None,2,1,0.4495069980621338,125.68114590644836,None,,,,,,,,,,,,,,,,,,,,,,,,,,1000,001,09,2021_Nov_02_1532,task-switching-replication,2021.2.3,60.005980133937825,
1,11,timed,09,sitting,switch,incongruant,dashed,triangle,yellow,stimuli/dashed-rectangle.png,stimuli/yellow-triangle.png,1,,,,,,,,,,,,,0,10,10,10,,,,,,,,,,,,,,,,,,,,,,,,,,,,,,,,,,,,,,,,,,,,,,,,,,,,,,,,,,,,,,,,,,,,,,,,,,,,,,,,,,,,,,,,,,,,128.35220098495483,None,,,,,,,,,,,,,,,,,126.45968890190125,None,127.44442105293274,None,1,1,0.7742760181427002,127.44442105293274,None,,,,,,,,,,,,,,,,,,,,,,,,,,1000,001,09,2021_Nov_02_1532,task-switching-replication,2021.2.3,60.005980133937825,
1,12,timed,09,sitting,switch,congruant,solid,square,blue,stimuli/solid-rectangle.png,stimuli/blue-square.png,1,,,,,,,,,,,,,0,11,11,11,,,,,,,,,,,,,,,,,,,,,,,,,,,,,,,,,,,,,,,,,,,,,,,,,,,,,,,,,,,,,,,,,,,,,,,,,,,,,,,,,,,,,,,,,,,,130.11724495887756,None,,,,,,,,,,,,,,,,,128.58213090896606,None,129.5665099620819,None,1,1,0.4283289909362793,129.5665099620819,None,,,,,,,,,,,,,,,,,,,,,,,,,,1000,001,09,2021_Nov_02_1532,task-switching-replication,2021.2.3,60.005980133937825,
1,13,timed,09,sitting,switch,congruant,dashed,triangle,yellow,stimuli/dashed-rectangle.png,stimuli/yellow-triangle.png,1,,,,,,,,,,,,,0,12,12,12,,,,,,,,,,,,,,,,,,,,,,,,,,,,,,,,,,,,,,,,,,,,,,,,,,,,,,,,,,,,,,,,,,,,,,,,,,,,,,,,,,,,,,,,,,,,132.00056385993958,None,,,,,,,,,,,,,,,,,130.34617400169373,None,131.33144903182983,None,1,1,0.5452749729156494,131.33144903182983,None,,,,,,,,,,,,,,,,,,,,,,,,,,1000,001,09,2021_Nov_02_1532,task-switching-replication,2021.2.3,60.005980133937825,
1,14,timed,09,sitting,noswitch,incongruant,dashed,square,blue,stimuli/dashed-rectangle.png,stimuli/blue-square.png,2,,,,,,,,,,,,,0,13,13,13,,,,,,,,,,,,,,,,,,,,,,,,,,,,,,,,,,,,,,,,,,,,,,,,,,,,,,,,,,,,,,,,,,,,,,,,,,,,,,,,,,,,,,,,,,,,133.70499086380005,None,,,,,,,,,,,,,,,,,132.2292239665985,None,133.21257901191711,None,2,1,0.36447787284851074,133.21257901191711,None,,,,,,,,,,,,,,,,,,,,,,,,,,1000,001,09,2021_Nov_02_1532,task-switching-replication,2021.2.3,60.005980133937825,
1,15,timed,09,sitting,noswitch,incongruant,dashed,triangle,yellow,stimuli/dashed-rectangle.png,stimuli/yellow-triangle.png,1,,,,,,,,,,,,,0,14,14,14,,,,,,,,,,,,,,,,,,,,,,,,,,,,,,,,,,,,,,,,,,,,,,,,,,,,,,,,,,,,,,,,,,,,,,,,,,,,,,,,,,,,,,,,,,,,135.40946698188782,None,,,,,,,,,,,,,,,,,133.93371486663818,None,134.91834497451782,None,1,1,0.38944411277770996,134.91834497451782,None,,,,,,,,,,,,,,,,,,,,,,,,,,1000,001,09,2021_Nov_02_1532,task-switching-replication,2021.2.3,60.005980133937825,
1,16,timed,09,sitting,noswitch,congruant,dashed,triangle,blue,stimuli/dashed-rectangle.png,stimuli/blue-triangle.png,1,,,,,,,,,,,,,0,15,15,15,,,,,,,,,,,,,,,,,,,,,,,,,,,,,,,,,,,,,,,,,,,,,,,,,,,,,,,,,,,,,,,,,,,,,,,,,,,,,,,,,,,,,,,,,,,,137.1710329055786,None,,,,,,,,,,,,,,,,,135.6378948688507,None,136.62053203582764,None,1,1,0.43430089950561523,136.62053203582764,None,,,,,,,,,,,,,,,,,,,,,,,,,,1000,001,09,2021_Nov_02_1532,task-switching-replication,2021.2.3,60.005980133937825,
1,17,timed,09,sitting,switch,congruant,solid,triangle,blue,stimuli/solid-rectangle.png,stimuli/blue-triangle.png,1,,,,,,,,,,,,,0,16,16,16,,,,,,,,,,,,,,,,,,,,,,,,,,,,,,,,,,,,,,,,,,,,,,,,,,,,,,,,,,,,,,,,,,,,,,,,,,,,,,,,,,,,,,,,,,,,138.99356698989868,None,,,,,,,,,,,,,,,,,137.4006040096283,None,138.38432502746582,None,1,1,0.47235989570617676,138.38432502746582,None,,,,,,,,,,,,,,,,,,,,,,,,,,1000,001,09,2021_Nov_02_1532,task-switching-replication,2021.2.3,60.005980133937825,
1,18,timed,09,sitting,noswitch,congruant,solid,triangle,blue,stimuli/solid-rectangle.png,stimuli/blue-triangle.png,1,,,,,,,,,,,,,0,17,17,17,,,,,,,,,,,,,,,,,,,,,,,,,,,,,,,,,,,,,,,,,,,,,,,,,,,,,,,,,,,,,,,,,,,,,,,,,,,,,,,,,,,,,,,,,,,,140.815691947937,None,,,,,,,,,,,,,,,,,139.22239995002747,None,140.20636200904846,None,1,1,0.5103349685668945,140.20636200904846,None,,,,,,,,,,,,,,,,,,,,,,,,,,1000,001,09,2021_Nov_02_1532,task-switching-replication,2021.2.3,60.005980133937825,
1,19,timed,09,sitting,noswitch,congruant,solid,square,blue,stimuli/solid-rectangle.png,stimuli/blue-square.png,1,,,,,,,,,,,,,0,18,18,18,0,0,0,0,,,,,,,,,,,,,,,,,,,,,,,,,,,,,,,,,,,,,,,,,,,,,,,,,,,,,,,,,,,,,,,,,,,,,,,,,,,,,,,,,,,,,,,,,,142.66886115074158,143.71873784065247,142.70106291770935,None,,,,,,,,,,,,,141.04462599754333,None,142.02861499786377,None,2,0,0.5659499168395996,142.02861499786377,None,,,,,,,,,,,,,,,,,,,,,,,,,,1000,001,09,2021_Nov_02_1532,task-switching-replication,2021.2.3,60.005980133937825,
1,19,timed,09,sitting,noswitch,congruant,solid,square,blue,stimuli/solid-rectangle.png,stimuli/blue-square.png,1,,,,,,,,,,,,,0,18,18,18,,,,,,,,,,,,,,,,,,,,,,,,,,,,,,,,,,,,,,,,,,,,,,,,,,,,,,,,,,,,,,,,,,,,,,,,,,,,,,,,,,,,,,,,,,,,147.72183895111084,None,,,,,,,,,,,,,,,,,,,,,,,,,,,,,,,,,,,,,,,,,,,,,,,,,,,1000,001,09,2021_Nov_02_1532,task-switching-replication,2021.2.3,60.005980133937825,
1,20,timed,09,sitting,noswitch,congruant,solid,triangle,blue,stimuli/solid-rectangle.png,stimuli/blue-triangle.png,1,,,,,,,,,,,,,0,19,19,19,,,,,,,,,,,,,,,,,,,,,,,,,,,,,,,,,,,,,,,,,,,,,,,,,,,,,,,,,,,,,,,,,,,,,,,,,,,,,,,,,,,,,,,,,,,,149.6321358680725,None,,,,,,,,,,,,,,,,,147.91851496696472,None,148.90286803245544,None,1,1,0.5860738754272461,148.90286803245544,None,,,,,,,,,,,,,,,,,,,,,,,,,,1000,001,09,2021_Nov_02_1532,task-switching-replication,2021.2.3,60.005980133937825,
1,21,timed,09,sitting,noswitch,incongruant,solid,triangle,yellow,stimuli/solid-rectangle.png,stimuli/yellow-triangle.png,2,,,,,,,,,,,,,0,20,20,20,,,,,,,,,,,,,,,,,,,,,,,,,,,,,,,,,,,,,,,,,,,,,,,,,,,,,,,,,,,,,,,,,,,,,,,,,,,,,,,,,,,,,,,,,,,,151.39658188819885,None,,,,,,,,,,,,,,,,,149.86126685142517,None,150.84552884101868,None,2,1,0.40225911140441895,150.84552884101868,None,,,,,,,,,,,,,,,,,,,,,,,,,,1000,001,09,2021_Nov_02_1532,task-switching-replication,2021.2.3,60.005980133937825,
1,22,timed,09,sitting,noswitch,congruant,solid,triangle,yellow,stimuli/solid-rectangle.png,stimuli/yellow-triangle.png,2,,,,,,,,,,,,,0,21,21,21,,,,,,,,,,,,,,,,,,,,,,,,,,,,,,,,,,,,,,,,,,,,,,,,,,,,,,,,,,,,,,,,,,,,,,,,,,,,,,,,,,,,,,,,,,,,153.27824091911316,None,,,,,,,,,,,,,,,,,151.6256549358368,None,152.60992693901062,None,2,1,0.5778160095214844,152.60992693901062,None,,,,,,,,,,,,,,,,,,,,,,,,,,1000,001,09,2021_Nov_02_1532,task-switching-replication,2021.2.3,60.005980133937825,
1,23,timed,09,sitting,noswitch,congruant,solid,square,yellow,stimuli/solid-rectangle.png,stimuli/yellow-square.png,2,,,,,,,,,,,,,0,22,22,22,,,,,,,,,,,,,,,,,,,,,,,,,,,,,,,,,,,,,,,,,,,,,,,,,,,,,,,,,,,,,,,,,,,,,,,,,,,,,,,,,,,,,,,,,,,,155.103168964386,None,,,,,,,,,,,,,,,,,153.5092990398407,None,154.4934539794922,None,2,1,0.4682779312133789,154.4934539794922,None,,,,,,,,,,,,,,,,,,,,,,,,,,1000,001,09,2021_Nov_02_1532,task-switching-replication,2021.2.3,60.005980133937825,
1,24,timed,09,sitting,switch,congruant,dashed,square,yellow,stimuli/dashed-rectangle.png,stimuli/yellow-square.png,2,,,,,,,,,,,,,0,23,23,23,,,,,,,,,,,,,,,,,,,,,,,,,,,,,,,,,,,,,,,,,,,,,,,,,,,,,,,,,,,,,,,,,,,,,,,,,,,,,,,,,,,,,,,,,,,,156.92650604248047,None,,,,,,,,,,,,,,,,,155.33231401443481,None,156.31680297851562,None,2,1,0.4819488525390625,156.31680297851562,None,,,,,,,,,,,,,,,,,,,,,,,,,,1000,001,09,2021_Nov_02_1532,task-switching-replication,2021.2.3,60.005980133937825,
1,1,experiment,09,sitting,buffer,buffer,solid,triangle,blue,stimuli/solid-rectangle.png,stimuli/blue-triangle.png,1,,,,,,,,,,,,,,,,,,,,,,,,,0,0,0,0,0,0,0,0,0,0,0,0,,,,,,,,,157.17020797729492,None,2,7.497556924819946,157.17020797729492,None,,,,,,,,,,,,,,,,,,,,,,,,,,,,,,,,,,,,,,,,,,,,,,,,,,,,,,,,,,177.94268488883972,None,,,,,,,,,,,,,,,,,,,,,,,,,,164.74280285835266,None,2,1.8810298442840576,164.74280285835266,None,166.7538878917694,None,2,9.264104843139648,166.7538878917694,None,176.17224502563477,None,177.15593099594116,None,1,1,0.6807548999786377,177.15593099594116,None,,,,,1000,001,09,2021_Nov_02_1532,task-switching-replication,2021.2.3,60.005980133937825,
1,2,experiment,09,sitting,switch,incongruant,dashed,square,blue,stimuli/dashed-rectangle.png,stimuli/blue-square.png,2,,,,,,,,,,,,,,,,,,,,,,,,,0,0,0,0,0,0,0,0,0,1,1,1,,,,,,,,,,,,,,,,,,,,,,,,,,,,,,,,,,,,,,,,,,,,,,,,,,,,,,,,,,,,,,,,,,,,,,,,180.17798399925232,None,,,,,,,,,,,,,,,,,,,,,,,,,,,,,,,,,,,,,,178.17135286331177,None,179.1554799079895,None,2,1,0.926314115524292,179.1554799079895,None,,,,,1000,001,09,2021_Nov_02_1532,task-switching-replication,2021.2.3,60.005980133937825,
1,3,experiment,09,sitting,switch,congruant,solid,triangle,yellow,stimuli/solid-rectangle.png,stimuli/yellow-triangle.png,2,,,,,,,,,,,,,,,,,,,,,,,,,0,0,0,0,0,0,0,0,0,2,2,2,,,,,,,,,,,,,,,,,,,,,,,,,,,,,,,,,,,,,,,,,,,,,,,,,,,,,,,,,,,,,,,,,,,,,,,,182.11854791641235,None,,,,,,,,,,,,,,,,,,,,,,,,,,,,,,,,,,,,,,180.40646290779114,None,181.39065790176392,None,2,1,0.5839080810546875,181.39065790176392,None,,,,,1000,001,09,2021_Nov_02_1532,task-switching-replication,2021.2.3,60.005980133937825,
1,4,experiment,09,sitting,noswitch,incongruant,solid,triangle,blue,stimuli/solid-rectangle.png,stimuli/blue-triangle.png,1,,,,,,,,,,,,,,,,,,,,,,,,,0,0,0,0,0,0,0,0,0,3,3,3,,,,,,,,,,,,,,,,,,,,,,,,,,,,,,,,,,,,,,,,,,,,,,,,,,,,,,,,,,,,,,,,,,,,,,,,183.9450328350067,None,,,,,,,,,,,,,,,,,,,,,,,,,,,,,,,,,,,,,,182.34772896766663,None,183.3326289653778,None,1,1,0.4540519714355469,183.3326289653778,None,,,,,1000,001,09,2021_Nov_02_1532,task-switching-replication,2021.2.3,60.005980133937825,
1,5,experiment,09,sitting,switch,incongruant,dashed,square,blue,stimuli/dashed-rectangle.png,stimuli/blue-square.png,2,,,,,,,,,,,,,,,,,,,,,,,,,0,0,0,0,0,0,0,0,0,4,4,4,,,,,,,,,,,,,,,,,,,,,,,,,,,,,,,,,,,,,,,,,,,,,,,,,,,,,,,,,,,,,,,,,,,,,,,,185.88891696929932,None,,,,,,,,,,,,,,,,,,,,,,,,,,,,,,,,,,,,,,184.17519998550415,None,185.1591899394989,None,2,1,0.601668119430542,185.1591899394989,None,,,,,1000,001,09,2021_Nov_02_1532,task-switching-replication,2021.2.3,60.005980133937825,
1,6,experiment,09,sitting,switch,incongruant,solid,triangle,blue,stimuli/solid-rectangle.png,stimuli/blue-triangle.png,1,,,,,,,,,,,,,,,,,,,,,,,,,0,0,0,0,0,0,0,0,0,5,5,5,,,,,,,,,,,,,,,,,,,,,,,,,,,,,,,,,,,,,,,,,,,,,,,,,,,,,,,,,,,,,,,,,,,,,,,,187.82791090011597,None,,,,,,,,,,,,,,,,,,,,,,,,,,,,,,,,,,,,,,186.11782789230347,None,187.1013548374176,None,1,1,0.6218760013580322,187.1013548374176,None,,,,,1000,001,09,2021_Nov_02_1532,task-switching-replication,2021.2.3,60.005980133937825,
1,7,experiment,09,sitting,noswitch,congruant,solid,square,blue,stimuli/solid-rectangle.png,stimuli/blue-square.png,1,,,,,,,,,,,,,,,,,,,,,,,,,0,0,0,0,0,0,0,0,0,6,6,6,,,,,,,,,,,,,,,,,,,,,,,,,,,,,,,,,,,,,,,,,,,,,,,,,,,,,,,,,,,,,,,,,,,,,,,,189.76856398582458,None,,,,,,,,,,,,,,,,,,,,,,,,,,,,,,,,,,,,,,188.0565538406372,None,189.04063200950623,None,1,1,0.5887889862060547,189.04063200950623,None,,,,,1000,001,09,2021_Nov_02_1532,task-switching-replication,2021.2.3,60.005980133937825,
1,8,experiment,09,sitting,switch,congruant,dashed,triangle,yellow,stimuli/dashed-rectangle.png,stimuli/yellow-triangle.png,1,,,,,,,,,,,,,,,,,,,,,,,,,0,0,0,0,0,0,0,0,0,7,7,7,,,,,,,,,,,,,,,,,,,,,,,,,,,,,,,,,,,,,,,,,,,,,,,,,,,,,,,,,,,,,,,,,,,,,,,,192.00591206550598,None,,,,,,,,,,,,,,,,,,,,,,,,,,,,,,,,,,,,,,189.9997959136963,None,190.98257184028625,None,1,1,0.8899989128112793,190.98257184028625,None,,,,,1000,001,09,2021_Nov_02_1532,task-switching-replication,2021.2.3,60.005980133937825,
1,9,experiment,09,sitting,noswitch,incongruant,dashed,square,blue,stimuli/dashed-rectangle.png,stimuli/blue-square.png,2,,,,,,,,,,,,,,,,,,,,,,,,,0,0,0,0,0,0,0,0,0,8,8,8,,,,,,,,,,,,,,,,,,,,,,,,,,,,,,,,,,,,,,,,,,,,,,,,,,,,,,,,,,,,,,,,,,,,,,,,194.0647919178009,None,,,,,,,,,,,,,,,,,,,,,,,,,,,,,,,,,,,,,,192.23477792739868,None,193.21893000602722,None,2,1,0.7345261573791504,193.21893000602722,None,,,,,1000,001,09,2021_Nov_02_1532,task-switching-replication,2021.2.3,60.005980133937825,
1,10,experiment,09,sitting,switch,congruant,solid,triangle,yellow,stimuli/solid-rectangle.png,stimuli/yellow-triangle.png,2,,,,,,,,,,,,,,,,,,,,,,,,,0,0,0,0,0,0,0,0,0,9,9,9,,,,,,,,,,,,,,,,,,,,,,,,,,,,,,,,,,,,,,,,,,,,,,,,,,,,,,,,,,,,,,,,,,,,,,,,196.12394189834595,None,,,,,,,,,,,,,,,,,,,,,,,,,,,,,,,,,,,,,,194.2934079170227,None,195.27785801887512,None,2,1,0.7387099266052246,195.27785801887512,None,,,,,1000,001,09,2021_Nov_02_1532,task-switching-replication,2021.2.3,60.005980133937825,
1,11,experiment,09,sitting,noswitch,incongruant,solid,square,blue,stimuli/solid-rectangle.png,stimuli/blue-square.png,1,,,,,,,,,,,,,,,,,,,,,,,,,0,0,0,0,0,0,0,0,0,10,10,10,,,,,,,,,,,,,,,,,,,,,,,,,,,,,,,,,,,,,,,,,,,,,,,,,,,,,,,,,,,,,,,,,,,,,,,,198.06684494018555,None,,,,,,,,,,,,,,,,,,,,,,,,,,,,,,,,,,,,,,196.35280203819275,None,197.3361828327179,None,1,1,0.5914478302001953,197.3361828327179,None,,,,,1000,001,09,2021_Nov_02_1532,task-switching-replication,2021.2.3,60.005980133937825,
1,12,experiment,09,sitting,noswitch,congruant,solid,square,blue,stimuli/solid-rectangle.png,stimuli/blue-square.png,1,,,,,,,,,,,,,,,,,,,,,,,,,0,0,0,0,0,0,0,0,0,11,11,11,,,,,,,,,,,,,,,,,,,,,,,,,,,,,,,,,,,,,,,,,,,,,,,,,,,,,,,,,,,,,,,,,,,,,,,,199.94901990890503,None,,,,,,,,,,,,,,,,,,,,,,,,,,,,,,,,,,,,,,198.29563999176025,None,199.2799689769745,None,1,1,0.5215179920196533,199.2799689769745,None,,,,,1000,001,09,2021_Nov_02_1532,task-switching-replication,2021.2.3,60.005980133937825,
1,13,experiment,09,sitting,switch,congruant,dashed,triangle,yellow,stimuli/dashed-rectangle.png,stimuli/yellow-triangle.png,1,,,,,,,,,,,,,,,,,,,,,,,,,0,0,0,0,0,0,0,0,0,12,12,12,,,,,,,,,,,,,,,,,,,,,,,,,,,,,,,,,,,,,,,,,,,,,,,,,,,,,,,,,,,,,,,,,,,,,,,,201.8296618461609,None,,,,,,,,,,,,,,,,,,,,,,,,,,,,,,,,,,,,,,200.17772102355957,None,201.16112089157104,None,1,1,0.5362651348114014,201.16112089157104,None,,,,,1000,001,09,2021_Nov_02_1532,task-switching-replication,2021.2.3,60.005980133937825,
1,14,experiment,09,sitting,noswitch,congruant,dashed,triangle,blue,stimuli/dashed-rectangle.png,stimuli/blue-triangle.png,1,,,,,,,,,,,,,,,,,,,,,,,,,0,0,0,0,0,0,0,0,0,13,13,13,,,,,,,,,,,,,,,,,,,,,,,,,,,,,,,,,,,,,,,,,,,,,,,,,,,,,,,,,,,,,,,,,,,,,,,,203.82829689979553,None,,,,,,,,,,,,,,,,,,,,,,,,,,,,,,,,,,,,,,202.05848789215088,None,203.0419728755951,None,1,1,0.672429084777832,203.0419728755951,None,,,,,1000,001,09,2021_Nov_02_1532,task-switching-replication,2021.2.3,60.005980133937825,
1,15,experiment,09,sitting,switch,incongruant,solid,square,yellow,stimuli/solid-rectangle.png,stimuli/yellow-square.png,2,,,,,,,,,,,,,,,,,,,,,,,,,0,0,0,0,0,0,0,0,0,14,14,14,,,,,,,,,,,,,,,,,,,,,,,,,,,,,,,,,,,,,,,,,,,,,,,,,,,,,,,,,,,,,,,,,,,,,,,,205.65205192565918,None,,,,,,,,,,,,,,,,,,,,,,,,,,,,,,,,,,,,,,204.05751705169678,None,205.04213190078735,None,2,1,0.4862990379333496,205.04213190078735,None,,,,,1000,001,09,2021_Nov_02_1532,task-switching-replication,2021.2.3,60.005980133937825,
1,16,experiment,09,sitting,switch,congruant,dashed,square,yellow,stimuli/dashed-rectangle.png,stimuli/yellow-square.png,2,,,,,,,,,,,,,,,,,,,,,,,,,0,0,0,0,0,0,0,0,0,15,15,15,,,,,,,,,,,,,,,,,,,,,,,,,,,,,,,,,,,,,,,,,,,,,,,,,,,,,,,,,,,,,,,,,,,,,,,,207.94826102256775,None,,,,,,,,,,,,,,,,,,,,,,,,,,,,,,,,,,,,,,205.88063192367554,None,206.86553502082825,None,2,1,0.960939884185791,206.86553502082825,None,,,,,1000,001,09,2021_Nov_02_1532,task-switching-replication,2021.2.3,60.005980133937825,
1,17,experiment,09,sitting,noswitch,incongruant,dashed,triangle,blue,stimuli/dashed-rectangle.png,stimuli/blue-triangle.png,1,,,,,,,,,,,,,,,,,,,,,,,,,0,0,0,0,0,0,0,0,0,16,16,16,,,,,,,,,,,,,,,,,,,,,,,,,,,,,,,,,,,,,,,,,,,,,,,,,,,,,,,,,,,,,,,,,,,,,,,,209.83281302452087,None,,,,,,,,,,,,,,,,,,,,,,,,,,,,,,,,,,,,,,208.1772849559784,None,209.1618959903717,None,1,1,0.5274410247802734,209.1618959903717,None,,,,,1000,001,09,2021_Nov_02_1532,task-switching-replication,2021.2.3,60.005980133937825,
1,18,experiment,09,sitting,switch,incongruant,solid,square,yellow,stimuli/solid-rectangle.png,stimuli/yellow-square.png,2,,,,,,,,,,,,,,,,,,,,,,,,,0,0,0,0,0,0,0,0,0,17,17,17,,,,,,,,,,,,,,,,,,,,,,,,,,,,,,,,,,,,,,,,,,,,,,,,,,,,,,,,,,,,,,,,,,,,,,,,211.60077095031738,None,,,,,,,,,,,,,,,,,,,,,,,,,,,,,,,,,,,,,,210.0617458820343,None,211.04478192329407,None,2,1,0.4324071407318115,211.04478192329407,None,,,,,1000,001,09,2021_Nov_02_1532,task-switching-replication,2021.2.3,60.005980133937825,
1,19,experiment,09,sitting,noswitch,congruant,solid,square,yellow,stimuli/solid-rectangle.png,stimuli/yellow-square.png,2,,,,,,,,,,,,,,,,,,,,,,,,,0,0,0,0,0,0,0,0,0,18,18,18,,,,,,,,,,,,,,,,,,,,,,,,,,,,,,,,,,,,,,,,,,,,,,,,,,,,,,,,,,,,,,,,,,,,,,,,213.36298298835754,None,,,,,,,,,,,,,,,,,,,,,,,,,,,,,,,,,,,,,,211.83006405830383,None,212.81271290779114,None,2,1,0.40073108673095703,212.81271290779114,None,,,,,1000,001,09,2021_Nov_02_1532,task-switching-replication,2021.2.3,60.005980133937825,
1,20,experiment,09,sitting,noswitch,incongruant,solid,triangle,blue,stimuli/solid-rectangle.png,stimuli/blue-triangle.png,1,,,,,,,,,,,,,,,,,,,,,,,,,0,0,0,0,0,0,0,0,0,19,19,19,,,,,,,,,,,,,,,,,,,,,,,,,,,,,,,,,,,,,,,,,,,,,,,,,,,,,,,,,,,,,,,,,,,,,,,,215.41904592514038,None,,,,,,,,,,,,,,,,,,,,,,,,,,,,,,,,,,,,,,213.59145593643188,None,214.5737099647522,None,1,1,0.7116999626159668,214.5737099647522,None,,,,,1000,001,09,2021_Nov_02_1532,task-switching-replication,2021.2.3,60.005980133937825,
1,21,experiment,09,sitting,switch,congruant,dashed,triangle,yellow,stimuli/dashed-rectangle.png,stimuli/yellow-triangle.png,1,,,,,,,,,,,,,,,,,,,,,,,,,0,0,0,0,0,0,0,0,0,20,20,20,,,,,,,,,,,,,,,,,,,,,,,,,,,,,,,,,,,,,,,,,,,,,,,,,,,,,,,,,,,,,,,,,,,,,,,,217.83363795280457,None,,,,,,,,,,,,,,,,,,,,,,,,,,,,,,,,,,,,,,215.64843487739563,None,216.63360691070557,None,1,1,1.103788137435913,216.63360691070557,None,,,,,1000,001,09,2021_Nov_02_1532,task-switching-replication,2021.2.3,60.005980133937825,
1,22,experiment,09,sitting,noswitch,congruant,dashed,triangle,blue,stimuli/dashed-rectangle.png,stimuli/blue-triangle.png,1,,,,,,,,,,,,,,,,,,,,,,,,,0,0,0,0,0,0,0,0,0,21,21,21,,,,,,,,,,,,,,,,,,,,,,,,,,,,,,,,,,,,,,,,,,,,,,,,,,,,,,,,,,,,,,,,,,,,,,,,219.65711283683777,None,,,,,,,,,,,,,,,,,,,,,,,,,,,,,,,,,,,,,,218.06321501731873,None,219.0473279953003,None,1,1,0.4830808639526367,219.0473279953003,None,,,,,1000,001,09,2021_Nov_02_1532,task-switching-replication,2021.2.3,60.005980133937825,
1,23,experiment,09,sitting,noswitch,incongruant,dashed,square,blue,stimuli/dashed-rectangle.png,stimuli/blue-square.png,2,,,,,,,,,,,,,,,,,,,,,,,,,0,0,0,0,0,0,0,0,0,22,22,22,,,,,,,,,,,,,,,,,,,,,,,,,,,,,,,,,,,,,,,,,,,,,,,,,,,,,,,,,,,,,,,,,,,,,,,,221.48018193244934,None,,,,,,,,,,,,,,,,,,,,,,,,,,,,,,,,,,,,,,219.88670301437378,None,220.87113499641418,None,2,1,0.5103111267089844,220.87113499641418,None,,,,,1000,001,09,2021_Nov_02_1532,task-switching-replication,2021.2.3,60.005980133937825,
1,24,experiment,09,sitting,switch,incongruant,solid,square,blue,stimuli/solid-rectangle.png,stimuli/blue-square.png,1,,,,,,,,,,,,,,,,,,,,,,,,,0,0,0,0,0,0,0,0,0,23,23,23,,,,,,,,,,,,,,,,,,,,,,,,,,,,,,,,,,,,,,,,,,,,,,,,,,,,,,,,,,,,,,,,,,,,,,,,223.72086906433105,None,,,,,,,,,,,,,,,,,,,,,,,,,,,,,,,,,,,,,,221.70885396003723,None,222.6940438747406,None,1,1,0.8934381008148193,222.6940438747406,None,,,,,1000,001,09,2021_Nov_02_1532,task-switching-replication,2021.2.3,60.005980133937825,
1,25,experiment,09,sitting,noswitch,incongruant,solid,triangle,yellow,stimuli/solid-rectangle.png,stimuli/yellow-triangle.png,2,,,,,,,,,,,,,,,,,,,,,,,,,0,0,0,0,0,0,0,0,0,24,24,24,,,,,,,,,,,,,,,,,,,,,,,,,,,,,,,,,,,,,,,,,,,,,,,,,,,,,,,,,,,,,,,,,,,,,,,,225.78202199935913,None,,,,,,,,,,,,,,,,,,,,,,,,,,,,,,,,,,,,,,223.94962882995605,None,224.9342679977417,None,2,1,0.6994619369506836,224.9342679977417,None,,,,,1000,001,09,2021_Nov_02_1532,task-switching-replication,2021.2.3,60.005980133937825,
1,26,experiment,09,sitting,noswitch,congruant,solid,triangle,yellow,stimuli/solid-rectangle.png,stimuli/yellow-triangle.png,2,,,,,,,,,,,,,,,,,,,,,,,,,0,0,0,0,0,0,0,0,0,25,25,25,,,,,,,,,,,,,,,,,,,,,,,,,,,,,,,,,,,,,,,,,,,,,,,,,,,,,,,,,,,,,,,,,,,,,,,,227.54536700248718,None,,,,,,,,,,,,,,,,,,,,,,,,,,,,,,,,,,,,,,226.01096105575562,None,226.99484205245972,None,2,1,0.4506509304046631,226.99484205245972,None,,,,,1000,001,09,2021_Nov_02_1532,task-switching-replication,2021.2.3,60.005980133937825,
1,27,experiment,09,sitting,switch,congruant,dashed,square,blue,stimuli/dashed-rectangle.png,stimuli/blue-square.png,2,,,,,,,,,,,,,,,,,,,,,,,,,0,0,0,0,0,0,0,0,0,26,26,26,,,,,,,,,,,,,,,,,,,,,,,,,,,,,,,,,,,,,,,,,,,,,,,,,,,,,,,,,,,,,,,,,,,,,,,,229.72236704826355,None,,,,,,,,,,,,,,,,,,,,,,,,,,,,,,,,,,,,,,227.774258852005,None,228.75792288780212,None,2,1,0.8154821395874023,228.75792288780212,None,,,,,1000,001,09,2021_Nov_02_1532,task-switching-replication,2021.2.3,60.005980133937825,
1,28,experiment,09,sitting,switch,congruant,solid,square,yellow,stimuli/solid-rectangle.png,stimuli/yellow-square.png,2,,,,,,,,,,,,,,,,,,,,,,,,,0,0,0,0,0,0,0,0,0,27,27,27,,,,,,,,,,,,,,,,,,,,,,,,,,,,,,,,,,,,,,,,,,,,,,,,,,,,,,,,,,,,,,,,,,,,,,,,231.89832997322083,None,,,,,,,,,,,,,,,,,,,,,,,,,,,,,,,,,,,,,,229.95122599601746,None,230.93499493598938,None,2,1,0.8364748954772949,230.93499493598938,None,,,,,1000,001,09,2021_Nov_02_1532,task-switching-replication,2021.2.3,60.005980133937825,
1,29,experiment,09,sitting,noswitch,congruant,solid,square,yellow,stimuli/solid-rectangle.png,stimuli/yellow-square.png,2,,,,,,,,,,,,,,,,,,,,,,,,,0,0,0,0,0,0,0,0,0,28,28,28,,,,,,,,,,,,,,,,,,,,,,,,,,,,,,,,,,,,,,,,,,,,,,,,,,,,,,,,,,,,,,,,,,,,,,,,233.72082495689392,None,,,,,,,,,,,,,,,,,,,,,,,,,,,,,,,,,,,,,,232.12732195854187,None,233.1112449169159,None,2,1,0.49256396293640137,233.1112449169159,None,,,,,1000,001,09,2021_Nov_02_1532,task-switching-replication,2021.2.3,60.005980133937825,
1,30,experiment,09,sitting,switch,incongruant,dashed,triangle,yellow,stimuli/dashed-rectangle.png,stimuli/yellow-triangle.png,1,,,,,,,,,,,,,,,,,,,,,,,,,0,0,0,0,0,0,0,0,0,29,29,29,,,,,,,,,,,,,,,,,,,,,,,,,,,,,,,,,,,,,,,,,,,,,,,,,,,,,,,,,,,,,,,,,,,,,,,,235.77941489219666,None,,,,,,,,,,,,,,,,,,,,,,,,,,,,,,,,,,,,,,233.94968390464783,None,234.93414497375488,None,1,1,0.7347619533538818,234.93414497375488,None,,,,,1000,001,09,2021_Nov_02_1532,task-switching-replication,2021.2.3,60.005980133937825,
1,31,experiment,09,sitting,noswitch,incongruant,dashed,square,yellow,stimuli/dashed-rectangle.png,stimuli/yellow-square.png,2,,,,,,,,,,,,,,,,,,,,,,,,,0,0,0,0,0,0,0,0,0,30,30,30,,,,,,,,,,,,,,,,,,,,,,,,,,,,,,,,,,,,,,,,,,,,,,,,,,,,,,,,,,,,,,,,,,,,,,,,238.54512000083923,None,,,,,,,,,,,,,,,,,,,,,,,,,,,,,,,,,,,,,,236.00844383239746,None,236.99179983139038,None,2,1,1.409771203994751,236.99179983139038,None,,,,,1000,001,09,2021_Nov_02_1532,task-switching-replication,2021.2.3,60.005980133937825,
1,32,experiment,09,sitting,noswitch,incongruant,dashed,triangle,yellow,stimuli/dashed-rectangle.png,stimuli/yellow-triangle.png,1,,,,,,,,,,,,,,,,,,,,,,,,,0,0,0,0,0,0,0,0,0,31,31,31,,,,,,,,,,,,,,,,,,,,,,,,,,,,,,,,,,,,,,,,,,,,,,,,,,,,,,,,,,,,,,,,,,,,,,,,240.60541892051697,None,,,,,,,,,,,,,,,,,,,,,,,,,,,,,,,,,,,,,,238.7741949558258,None,239.75697493553162,None,1,1,0.6904771327972412,239.75697493553162,None,,,,,1000,001,09,2021_Nov_02_1532,task-switching-replication,2021.2.3,60.005980133937825,
1,33,experiment,09,sitting,noswitch,congruant,dashed,triangle,blue,stimuli/dashed-rectangle.png,stimuli/blue-triangle.png,1,,,,,,,,,,,,,,,,,,,,,,,,,0,0,0,0,0,0,0,0,0,32,32,32,,,,,,,,,,,,,,,,,,,,,,,,,,,,,,,,,,,,,,,,,,,,,,,,,,,,,,,,,,,,,,,,,,,,,,,,242.6043038368225,None,,,,,,,,,,,,,,,,,,,,,,,,,,,,,,,,,,,,,,240.83442783355713,None,241.8178448677063,None,1,1,0.6554169654846191,241.8178448677063,None,,,,,1000,001,09,2021_Nov_02_1532,task-switching-replication,2021.2.3,60.005980133937825,
1,34,experiment,09,sitting,switch,congruant,solid,square,blue,stimuli/solid-rectangle.png,stimuli/blue-square.png,1,,,,,,,,,,,,,,,,,,,,,,,,,0,0,0,0,0,0,0,0,0,33,33,33,,,,,,,,,,,,,,,,,,,,,,,,,,,,,,,,,,,,,,,,,,,,,,,,,,,,,,,,,,,,,,,,,,,,,,,,244.54614186286926,None,,,,,,,,,,,,,,,,,,,,,,,,,,,,,,,,,,,,,,242.83359599113464,None,243.81833291053772,None,1,1,0.6239330768585205,243.81833291053772,None,,,,,1000,001,09,2021_Nov_02_1532,task-switching-replication,2021.2.3,60.005980133937825,
1,35,experiment,09,sitting,noswitch,incongruant,solid,triangle,yellow,stimuli/solid-rectangle.png,stimuli/yellow-triangle.png,2,,,,,,,,,,,,,,,,,,,,,,,,,0,0,0,0,0,0,0,0,0,34,34,34,,,,,,,,,,,,,,,,,,,,,,,,,,,,,,,,,,,,,,,,,,,,,,,,,,,,,,,,,,,,,,,,,,,,,,,,246.66368889808655,None,,,,,,,,,,,,,,,,,,,,,,,,,,,,,,,,,,,,,,244.77507495880127,None,245.7598798274994,None,2,1,0.7975828647613525,245.7598798274994,None,,,,,1000,001,09,2021_Nov_02_1532,task-switching-replication,2021.2.3,60.005980133937825,
1,36,experiment,09,sitting,switch,incongruant,dashed,triangle,yellow,stimuli/dashed-rectangle.png,stimuli/yellow-triangle.png,1,,,,,,,,,,,,,,,,,,,,,,,,,0,0,0,0,0,0,0,0,0,35,35,35,,,,,,,,,,,,,,,,,,,,,,,,,,,,,,,,,,,,,,,,,,,,,,,,,,,,,,,,,,,,,,,,,,,,,,,,248.72286200523376,None,,,,,,,,,,,,,,,,,,,,,,,,,,,,,,,,,,,,,,246.89223098754883,None,247.87537288665771,None,1,1,0.7091121673583984,247.87537288665771,None,,,,,1000,001,09,2021_Nov_02_1532,task-switching-replication,2021.2.3,60.005980133937825,
1,37,experiment,09,sitting,switch,congruant,solid,triangle,blue,stimuli/solid-rectangle.png,stimuli/blue-triangle.png,1,,,,,,,,,,,,,,,,,,,,,,,,,0,0,0,0,0,0,0,0,0,36,36,36,,,,,,,,,,,,,,,,,,,,,,,,,,,,,,,,,,,,,,,,,,,,,,,,,,,,,,,,,,,,,,,,,,,,,,,,250.54570603370667,None,,,,,,,,,,,,,,,,,,,,,,,,,,,,,,,,,,,,,,248.95140099525452,None,249.93593192100525,None,1,1,0.4772021770477295,249.93593192100525,None,,,,,1000,001,09,2021_Nov_02_1532,task-switching-replication,2021.2.3,60.005980133937825,
1,38,experiment,09,sitting,switch,incongruant,dashed,square,yellow,stimuli/dashed-rectangle.png,stimuli/yellow-square.png,2,,,,,,,,,,,,,,,,,,,,,,,,,0,0,0,0,0,0,0,0,0,37,37,37,,,,,,,,,,,,,,,,,,,,,,,,,,,,,,,,,,,,,,,,,,,,,,,,,,,,,,,,,,,,,,,,,,,,,,,,252.60668897628784,None,,,,,,,,,,,,,,,,,,,,,,,,,,,,,,,,,,,,,,250.77459502220154,None,251.75872802734375,None,2,1,0.6997740268707275,251.75872802734375,None,,,,,1000,001,09,2021_Nov_02_1532,task-switching-replication,2021.2.3,60.005980133937825,
1,39,experiment,09,sitting,switch,incongruant,solid,triangle,blue,stimuli/solid-rectangle.png,stimuli/blue-triangle.png,1,,,,,,,,,,,,,,,,,,,,,,,,,0,0,0,0,0,0,0,0,0,38,38,38,,,,,,,,,,,,,,,,,,,,,,,,,,,,,,,,,,,,,,,,,,,,,,,,,,,,,,,,,,,,,,,,,,,,,,,,254.49365091323853,None,,,,,,,,,,,,,,,,,,,,,,,,,,,,,,,,,,,,,,252.83616590499878,None,253.82059597969055,None,1,1,0.5497300624847412,253.82059597969055,None,,,,,1000,001,09,2021_Nov_02_1532,task-switching-replication,2021.2.3,60.005980133937825,
1,40,experiment,09,sitting,switch,congruant,dashed,triangle,blue,stimuli/dashed-rectangle.png,stimuli/blue-triangle.png,1,,,,,,,,,,,,,,,,,,,,,,,,,0,0,0,0,0,0,0,0,0,39,39,39,,,,,,,,,,,,,,,,,,,,,,,,,,,,,,,,,,,,,,,,,,,,,,,,,,,,,,,,,,,,,,,,,,,,,,,,256.4935350418091,None,,,,,,,,,,,,,,,,,,,,,,,,,,,,,,,,,,,,,,254.72230291366577,None,255.70689296722412,None,1,1,0.6823418140411377,255.70689296722412,None,,,,,1000,001,09,2021_Nov_02_1532,task-switching-replication,2021.2.3,60.005980133937825,
1,41,experiment,09,sitting,switch,congruant,solid,triangle,blue,stimuli/solid-rectangle.png,stimuli/blue-triangle.png,1,,,,,,,,,,,,,,,,,,,,,,,,,0,0,0,0,0,0,0,0,0,40,40,40,,,,,,,,,,,,,,,,,,,,,,,,,,,,,,,,,,,,,,,,,,,,,,,,,,,,,,,,,,,,,,,,,,,,,,,,258.3767828941345,None,,,,,,,,,,,,,,,,,,,,,,,,,,,,,,,,,,,,,,256.72252082824707,None,257.708065032959,None,1,1,0.5391790866851807,257.708065032959,None,,,,,1000,001,09,2021_Nov_02_1532,task-switching-replication,2021.2.3,60.005980133937825,
1,42,experiment,09,sitting,noswitch,incongruant,solid,square,yellow,stimuli/solid-rectangle.png,stimuli/yellow-square.png,2,,,,,,,,,,,,,,,,,,,,,,,,,0,0,0,0,0,0,0,0,0,41,41,41,,,,,,,,,,,,,,,,,,,,,,,,,,,,,,,,,,,,,,,,,,,,,,,,,,,,,,,,,,,,,,,,,,,,,,,,260.2627658843994,None,,,,,,,,,,,,,,,,,,,,,,,,,,,,,,,,,,,,,,258.60576605796814,None,259.5895550251007,None,2,1,0.5399439334869385,259.5895550251007,None,,,,,1000,001,09,2021_Nov_02_1532,task-switching-replication,2021.2.3,60.005980133937825,
1,43,experiment,09,sitting,switch,incongruant,dashed,triangle,blue,stimuli/dashed-rectangle.png,stimuli/blue-triangle.png,1,,,,,,,,,,,,,,,,,,,,,,,,,0,0,0,0,0,0,0,0,0,42,42,42,,,,,,,,,,,,,,,,,,,,,,,,,,,,,,,,,,,,,,,,,,,,,,,,,,,,,,,,,,,,,,,,,,,,,,,,262.26097202301025,None,,,,,,,,,,,,,,,,,,,,,,,,,,,,,,,,,,,,,,260.49174904823303,None,261.4754319190979,None,1,1,0.6831021308898926,261.4754319190979,None,,,,,1000,001,09,2021_Nov_02_1532,task-switching-replication,2021.2.3,60.005980133937825,
1,44,experiment,09,sitting,noswitch,incongruant,dashed,square,yellow,stimuli/dashed-rectangle.png,stimuli/yellow-square.png,2,,,,,,,,,,,,,,,,,,,,,,,,,0,0,0,0,0,0,0,0,0,43,43,43,,,,,,,,,,,,,,,,,,,,,,,,,,,,,,,,,,,,,,,,,,,,,,,,,,,,,,,,,,,,,,,,,,,,,,,,264.32165002822876,None,,,,,,,,,,,,,,,,,,,,,,,,,,,,,,,,,,,,,,262.48991799354553,None,263.47273683547974,None,2,1,0.705751895904541,263.47273683547974,None,,,,,1000,001,09,2021_Nov_02_1532,task-switching-replication,2021.2.3,60.005980133937825,
1,45,experiment,09,sitting,noswitch,congruant,dashed,square,yellow,stimuli/dashed-rectangle.png,stimuli/yellow-square.png,2,,,,,,,,,,,,,,,,,,,,,,,,,0,0,0,0,0,0,0,0,0,44,44,44,,,,,,,,,,,,,,,,,,,,,,,,,,,,,,,,,,,,,,,,,,,,,,,,,,,,,,,,,,,,,,,,,,,,,,,,266.2029540538788,None,,,,,,,,,,,,,,,,,,,,,,,,,,,,,,,,,,,,,,264.5502760410309,None,265.5342400074005,None,2,1,0.5588710308074951,265.5342400074005,None,,,,,1000,001,09,2021_Nov_02_1532,task-switching-replication,2021.2.3,60.005980133937825,
1,46,experiment,09,sitting,noswitch,congruant,dashed,square,yellow,stimuli/dashed-rectangle.png,stimuli/yellow-square.png,2,,,,,,,,,,,,,,,,,,,,,,,,,0,0,0,0,0,0,0,0,0,45,45,45,,,,,,,,,,,,,,,,,,,,,,,,,,,,,,,,,,,,,,,,,,,,,,,,,,,,,,,,,,,,,,,,,,,,,,,,267.96741700172424,None,,,,,,,,,,,,,,,,,,,,,,,,,,,,,,,,,,,,,,266.43311500549316,None,267.41649293899536,None,2,1,0.4258129596710205,267.41649293899536,None,,,,,1000,001,09,2021_Nov_02_1532,task-switching-replication,2021.2.3,60.005980133937825,
1,47,experiment,09,sitting,noswitch,congruant,dashed,square,blue,stimuli/dashed-rectangle.png,stimuli/blue-square.png,2,,,,,,,,,,,,,,,,,,,,,,,,,0,0,0,0,0,0,0,0,0,46,46,46,,,,,,,,,,,,,,,,,,,,,,,,,,,,,,,,,,,,,,,,,,,,,,,,,,,,,,,,,,,,,,,,,,,,,,,,269.90826296806335,None,,,,,,,,,,,,,,,,,,,,,,,,,,,,,,,,,,,,,,268.1964809894562,None,269.1803879737854,None,2,1,0.586716890335083,269.1803879737854,None,,,,,1000,001,09,2021_Nov_02_1532,task-switching-replication,2021.2.3,60.005980133937825,
1,48,experiment,09,sitting,switch,congruant,solid,triangle,yellow,stimuli/solid-rectangle.png,stimuli/yellow-triangle.png,2,,,,,,,,,,,,,,,,,,,,,,,,,0,0,0,0,0,0,0,0,0,47,47,47,0,0,0,0,,,,,,,,,,,,,,,,,,,,,,,,,,,,,,,,,,,,,,,,,,,,,,,,,,,,,,,,,,,,,,,,,,,,,,271.64349699020386,272.6950259208679,271.6763198375702,None,,,,,,,,,,,,,,,,,,,,,,,,,,,,,,,,,,270.1368589401245,None,271.12083196640015,None,1,0,0.4352719783782959,271.12083196640015,None,,,,,1000,001,09,2021_Nov_02_1532,task-switching-replication,2021.2.3,60.005980133937825,
1,48,experiment,09,sitting,switch,congruant,solid,triangle,yellow,stimuli/solid-rectangle.png,stimuli/yellow-triangle.png,2,,,,,,,,,,,,,,,,,,,,,,,,,0,0,0,0,0,0,0,0,0,47,47,47,,,,,,,,,,,,,,,,,,,,,,,,,,,,,,,,,,,,,,,,,,,,,,,,,,,,,,,,,,,,,,,,,,,,,,,,276.69942593574524,None,,,,,,,,,,,,,,,,,,,,,,,,,,,,,,,,,,,,,,,,,,,,,,,,,,,1000,001,09,2021_Nov_02_1532,task-switching-replication,2021.2.3,60.005980133937825,
1,49,experiment,09,sitting,noswitch,incongruant,solid,square,blue,stimuli/solid-rectangle.png,stimuli/blue-square.png,1,,,,,,,,,,,,,,,,,,,,,,,,,0,0,0,0,0,0,0,0,0,48,48,48,,,,,,,,,,,,,,,,,,,,,,,,,,,,,,,,,,,,,,,,,,,,,,,,,,,,,,,,,,,,,,,,,,,,,,,,278.7854919433594,None,,,,,,,,,,,,,,,,,,,,,,,,,,,,,,,,,,,,,,276.89565086364746,None,277.8797528743744,None,1,1,0.7524089813232422,277.8797528743744,None,,,,,1000,001,09,2021_Nov_02_1532,task-switching-replication,2021.2.3,60.005980133937825,
,,,09,,,,,,,,,,,,,,,,,,,,,,,,,,,,,,,,,,0,0,0,0,0,0,0,0,,,,,,,,,,,,,,,,,,,,,,,,,,,,,,,,,,,,,,,,,,,,,,,,,,,,,,,,,,,,,,,,,,,,,,,,,,,,,,,,,,,,,,,,,,,,,,,,,,,,,,,,,,,,,,,,,,,,,,,,,,,,,,,,1000,001,09,2021_Nov_02_1532,task-switching-replication,2021.2.3,60.005980133937825,
2,1,experiment,09,sitting,buffer,buffer,solid,square,blue,stimuli/solid-rectangle.png,stimuli/blue-square.png,1,,,,,,,,,,,,,,,,,,,,,,,,,0,0,0,0,1,0,1,0,0,0,0,0,,,,,,,,,,,,,,,,,,,,,,,,,,,,,,,,,,,,,,,,,,,,,,,,,,,,,,,,,,,,,,,,,,,,,,,,290.64727783203125,None,,,,,,,,,,,,,,,,,,,,,,,,,,279.01532006263733,None,2,2.021782875061035,279.01532006263733,None,281.1503930091858,None,2,7.560653924942017,281.1503930091858,None,288.876571893692,None,289.86124300956726,None,1,1,0.6801509857177734,289.86124300956726,None,,,,,1000,001,09,2021_Nov_02_1532,task-switching-replication,2021.2.3,60.005980133937825,
2,2,experiment,09,sitting,switch,congruant,dashed,triangle,blue,stimuli/dashed-rectangle.png,stimuli/blue-triangle.png,1,,,,,,,,,,,,,,,,,,,,,,,,,0,0,0,0,1,0,1,0,0,1,1,1,,,,,,,,,,,,,,,,,,,,,,,,,,,,,,,,,,,,,,,,,,,,,,,,,,,,,,,,,,,,,,,,,,,,,,,,292.70616483688354,None,,,,,,,,,,,,,,,,,,,,,,,,,,,,,,,,,,,,,,290.8761999607086,None,291.86040687561035,None,1,1,0.7404661178588867,291.86040687561035,None,,,,,1000,001,09,2021_Nov_02_1532,task-switching-replication,2021.2.3,60.005980133937825,
2,3,experiment,09,sitting,noswitch,incongruant,dashed,square,blue,stimuli/dashed-rectangle.png,stimuli/blue-square.png,2,,,,,,,,,,,,,,,,,,,,,,,,,0,0,0,0,1,0,1,0,0,2,2,2,,,,,,,,,,,,,,,,,,,,,,,,,,,,,,,,,,,,,,,,,,,,,,,,,,,,,,,,,,,,,,,,,,,,,,,,294.9997320175171,None,,,,,,,,,,,,,,,,,,,,,,,,,,,,,,,,,,,,,,292.93562388420105,None,293.9184730052948,None,2,1,0.9646880626678467,293.9184730052948,None,,,,,1000,001,09,2021_Nov_02_1532,task-switching-replication,2021.2.3,60.005980133937825,
2,4,experiment,09,sitting,noswitch,congruant,dashed,square,blue,stimuli/dashed-rectangle.png,stimuli/blue-square.png,2,,,,,,,,,,,,,,,,,,,,,,,,,0,0,0,0,1,0,1,0,0,3,3,3,,,,,,,,,,,,,,,,,,,,,,,,,,,,,,,,,,,,,,,,,,,,,,,,,,,,,,,,,,,,,,,,,,,,,,,,296.88133788108826,None,,,,,,,,,,,,,,,,,,,,,,,,,,,,,,,,,,,,,,295.2290098667145,None,296.2125289440155,None,2,1,0.5475640296936035,296.2125289440155,None,,,,,1000,001,09,2021_Nov_02_1532,task-switching-replication,2021.2.3,60.005980133937825,
2,5,experiment,09,sitting,noswitch,congruant,dashed,square,yellow,stimuli/dashed-rectangle.png,stimuli/yellow-square.png,2,,,,,,,,,,,,,,,,,,,,,,,,,0,0,0,0,1,0,1,0,0,4,4,4,,,,,,,,,,,,,,,,,,,,,,,,,,,,,,,,,,,,,,,,,,,,,,,,,,,,,,,,,,,,,,,,,,,,,,,,298.82245993614197,None,,,,,,,,,,,,,,,,,,,,,,,,,,,,,,,,,,,,,,297.1105110645294,None,298.0942280292511,None,2,1,0.6177458763122559,298.0942280292511,None,,,,,1000,001,09,2021_Nov_02_1532,task-switching-replication,2021.2.3,60.005980133937825,
2,6,experiment,09,sitting,noswitch,incongruant,dashed,triangle,yellow,stimuli/dashed-rectangle.png,stimuli/yellow-triangle.png,1,,,,,,,,,,,,,,,,,,,,,,,,,0,0,0,0,1,0,1,0,0,5,5,5,,,,,0,0,0,0,,,,,,,,,,,,,,,,,,,,,,,,,,,,,,,,,,,,,,,,,,,,,,,,,,,,,,,,,,,,,,,,,,,,,,,,,,,,,,,,,,,,,,,,,,,,,,,,,,,,,,,299.05142188072205,None,300.0356140136719,None,2,0,0.6374421119689941,300.0356140136719,None,300.7941930294037,301.84665298461914,300.8273718357086,None,1000,001,09,2021_Nov_02_1532,task-switching-replication,2021.2.3,60.005980133937825,
2,6,experiment,09,sitting,noswitch,incongruant,dashed,triangle,yellow,stimuli/dashed-rectangle.png,stimuli/yellow-triangle.png,1,,,,,,,,,,,,,,,,,,,,,,,,,0,0,0,0,1,0,1,0,0,5,5,5,,,,,,,,,,,,,,,,,,,,,,,,,,,,,,,,,,,,,,,,,,,,,,,,,,,,,,,,,,,,,,,,,,,,,,,,305.8491668701172,None,,,,,,,,,,,,,,,,,,,,,,,,,,,,,,,,,,,,,,,,,,,,,,,,,,,1000,001,09,2021_Nov_02_1532,task-switching-replication,2021.2.3,60.005980133937825,
2,7,experiment,09,sitting,noswitch,incongruant,dashed,square,yellow,stimuli/dashed-rectangle.png,stimuli/yellow-square.png,2,,,,,,,,,,,,,,,,,,,,,,,,,0,0,0,0,1,0,1,0,0,6,6,6,,,,,,,,,,,,,,,,,,,,,,,,,,,,,,,,,,,,,,,,,,,,,,,,,,,,,,,,,,,,,,,,,,,,,,,,307.9356608390808,None,,,,,,,,,,,,,,,,,,,,,,,,,,,,,,,,,,,,,,306.0458369255066,None,307.0307619571686,None,2,1,0.7681789398193359,307.0307619571686,None,,,,,1000,001,09,2021_Nov_02_1532,task-switching-replication,2021.2.3,60.005980133937825,
2,8,experiment,09,sitting,switch,incongruant,solid,square,blue,stimuli/solid-rectangle.png,stimuli/blue-square.png,1,,,,,,,,,,,,,,,,,,,,,,,,,0,0,0,0,1,0,1,0,0,7,7,7,,,,,,,,,,,,,,,,,,,,,,,,,,,,,,,,,,,,,,,,,,,,,,,,,,,,,,,,,,,,,,,,,,,,,,,,309.9950988292694,None,,,,,,,,,,,,,,,,,,,,,,,,,,,,,,,,,,,,,,308.1649718284607,None,309.1487498283386,None,1,1,0.6880152225494385,309.1487498283386,None,,,,,1000,001,09,2021_Nov_02_1532,task-switching-replication,2021.2.3,60.005980133937825,
2,9,experiment,09,sitting,switch,incongruant,dashed,square,blue,stimuli/dashed-rectangle.png,stimuli/blue-square.png,2,,,,,,,,,,,,,,,,,,,,,,,,,0,0,0,0,1,0,1,0,0,8,8,8,,,,,0,0,0,0,,,,,,,,,,,,,,,,,,,,,,,,,,,,,,,,,,,,,,,,,,,,,,,,,,,,,,,,,,,,,,,,,,,,,,,,,,,,,,,,,,,,,,,,,,,,,,,,,,,,,,,310.22400403022766,None,311.2084639072418,None,1,0,0.8263809680938721,311.2084639072418,None,312.1439919471741,313.16211199760437,312.17704606056213,None,1000,001,09,2021_Nov_02_1532,task-switching-replication,2021.2.3,60.005980133937825,
2,9,experiment,09,sitting,switch,incongruant,dashed,square,blue,stimuli/dashed-rectangle.png,stimuli/blue-square.png,2,,,,,,,,,,,,,,,,,,,,,,,,,0,0,0,0,1,0,1,0,0,8,8,8,,,,,,,,,,,,,,,,,,,,,,,,,,,,,,,,,,,,,,,,,,,,,,,,,,,,,,,,,,,,,,,,,,,,,,,,317.2030699253082,None,,,,,,,,,,,,,,,,,,,,,,,,,,,,,,,,,,,,,,,,,,,,,,,,,,,1000,001,09,2021_Nov_02_1532,task-switching-replication,2021.2.3,60.005980133937825,
2,10,experiment,09,sitting,switch,congruant,solid,triangle,yellow,stimuli/solid-rectangle.png,stimuli/yellow-triangle.png,2,,,,,,,,,,,,,,,,,,,,,,,,,0,0,0,0,1,0,1,0,0,9,9,9,,,,,,,,,,,,,,,,,,,,,,,,,,,,,,,,,,,,,,,,,,,,,,,,,,,,,,,,,,,,,,,,,,,,,,,,319.2908070087433,None,,,,,,,,,,,,,,,,,,,,,,,,,,,,,,,,,,,,,,317.40012884140015,None,318.38568592071533,None,2,1,0.7741990089416504,318.38568592071533,None,,,,,1000,001,09,2021_Nov_02_1532,task-switching-replication,2021.2.3,60.005980133937825,
2,11,experiment,09,sitting,noswitch,incongruant,solid,square,blue,stimuli/solid-rectangle.png,stimuli/blue-square.png,1,,,,,,,,,,,,,,,,,,,,,,,,,0,0,0,0,1,0,1,0,0,10,10,10,,,,,,,,,,,,,,,,,,,,,,,,,,,,,,,,,,,,,,,,,,,,,,,,,,,,,,,,,,,,,,,,,,,,,,,,321.354229927063,None,,,,,,,,,,,,,,,,,,,,,,,,,,,,,,,,,,,,,,319.51979184150696,None,320.5055730342865,None,1,1,0.7241787910461426,320.5055730342865,None,,,,,1000,001,09,2021_Nov_02_1532,task-switching-replication,2021.2.3,60.005980133937825,
2,12,experiment,09,sitting,switch,incongruant,dashed,square,yellow,stimuli/dashed-rectangle.png,stimuli/yellow-square.png,2,,,,,,,,,,,,,,,,,,,,,,,,,0,0,0,0,1,0,1,0,0,11,11,11,,,,,,,,,,,,,,,,,,,,,,,,,,,,,,,,,,,,,,,,,,,,,,,,,,,,,,,,,,,,,,,,,,,,,,,,323.35441493988037,None,,,,,,,,,,,,,,,,,,,,,,,,,,,,,,,,,,,,,,321.58417201042175,None,322.56853890419006,None,2,1,0.6816051006317139,322.56853890419006,None,,,,,1000,001,09,2021_Nov_02_1532,task-switching-replication,2021.2.3,60.005980133937825,
2,13,experiment,09,sitting,switch,incongruant,solid,triangle,blue,stimuli/solid-rectangle.png,stimuli/blue-triangle.png,1,,,,,,,,,,,,,,,,,,,,,,,,,0,0,0,0,1,0,1,0,0,12,12,12,,,,,,,,,,,,,,,,,,,,,,,,,,,,,,,,,,,,,,,,,,,,,,,,,,,,,,,,,,,,,,,,,,,,,,,,325.5900959968567,None,,,,,,,,,,,,,,,,,,,,,,,,,,,,,,,,,,,,,,323.58334589004517,None,324.5675859451294,None,1,1,0.9163389205932617,324.5675859451294,None,,,,,1000,001,09,2021_Nov_02_1532,task-switching-replication,2021.2.3,60.005980133937825,
2,14,experiment,09,sitting,noswitch,congruant,solid,square,blue,stimuli/solid-rectangle.png,stimuli/blue-square.png,1,,,,,,,,,,,,,,,,,,,,,,,,,0,0,0,0,1,0,1,0,0,13,13,13,,,,,,,,,,,,,,,,,,,,,,,,,,,,,,,,,,,,,,,,,,,,,,,,,,,,,,,,,,,,,,,,,,,,,,,,327.8236930370331,None,,,,,,,,,,,,,,,,,,,,,,,,,,,,,,,,,,,,,,325.81869888305664,None,326.8015229701996,None,1,1,0.8923158645629883,326.8015229701996,None,,,,,1000,001,09,2021_Nov_02_1532,task-switching-replication,2021.2.3,60.005980133937825,
2,15,experiment,09,sitting,noswitch,incongruant,solid,triangle,yellow,stimuli/solid-rectangle.png,stimuli/yellow-triangle.png,2,,,,,,,,,,,,,,,,,,,,,,,,,0,0,0,0,1,0,1,0,0,14,14,14,,,,,,,,,,,,,,,,,,,,,,,,,,,,,,,,,,,,,,,,,,,,,,,,,,,,,,,,,,,,,,,,,,,,,,,,330.17586398124695,None,,,,,,,,,,,,,,,,,,,,,,,,,,,,,,,,,,,,,,328.0523998737335,None,329.0357699394226,None,2,1,1.0349700450897217,329.0357699394226,None,,,,,1000,001,09,2021_Nov_02_1532,task-switching-replication,2021.2.3,60.005980133937825,
2,16,experiment,09,sitting,noswitch,congruant,solid,triangle,yellow,stimuli/solid-rectangle.png,stimuli/yellow-triangle.png,2,,,,,,,,,,,,,,,,,,,,,,,,,0,0,0,0,1,0,1,0,0,15,15,15,0,0,0,0,,,,,,,,,,,,,,,,,,,,,,,,,,,,,,,,,,,,,,,,,,,,,,,,,,,,,,,,,,,,,,,,,,,,,,332.9236476898193,333.97312092781067,332.9546480178833,None,,,,,,,,,,,,,,,,,,,,,,,,,,,,,,,,,,330.40438294410706,None,331.38831901550293,None,None,0,,331.38831901550293,None,,,,,1000,001,09,2021_Nov_02_1532,task-switching-replication,2021.2.3,60.005980133937825,
2,16,experiment,09,sitting,noswitch,congruant,solid,triangle,yellow,stimuli/solid-rectangle.png,stimuli/yellow-triangle.png,2,,,,,,,,,,,,,,,,,,,,,,,,,0,0,0,0,1,0,1,0,0,15,15,15,,,,,,,,,,,,,,,,,,,,,,,,,,,,,,,,,,,,,,,,,,,,,,,,,,,,,,,,,,,,,,,,,,,,,,,,337.97416400909424,None,,,,,,,,,,,,,,,,,,,,,,,,,,,,,,,,,,,,,,,,,,,,,,,,,,,1000,001,09,2021_Nov_02_1532,task-switching-replication,2021.2.3,60.005980133937825,
2,17,experiment,09,sitting,noswitch,congruant,solid,square,yellow,stimuli/solid-rectangle.png,stimuli/yellow-square.png,2,,,,,,,,,,,,,,,,,,,,,,,,,0,0,0,0,1,0,1,0,0,16,16,16,,,,,,,,,,,,,,,,,,,,,,,,,,,,,,,,,,,,,,,,,,,,,,,,,,,,,,,,,,,,,,,,,,,,,,,,340.53245186805725,None,,,,,,,,,,,,,,,,,,,,,,,,,,,,,,,,,,,,,,338.171128988266,None,339.1556558609009,None,2,1,1.2651770114898682,339.1556558609009,None,,,,,1000,001,09,2021_Nov_02_1532,task-switching-replication,2021.2.3,60.005980133937825,
2,18,experiment,09,sitting,noswitch,congruant,solid,triangle,yellow,stimuli/solid-rectangle.png,stimuli/yellow-triangle.png,2,,,,,,,,,,,,,,,,,,,,,,,,,0,0,0,0,1,0,1,0,0,17,17,17,,,,,,,,,,,,,,,,,,,,,,,,,,,,,,,,,,,,,,,,,,,,,,,,,,,,,,,,,,,,,,,,,,,,,,,,342.7685408592224,None,,,,,,,,,,,,,,,,,,,,,,,,,,,,,,,,,,,,,,340.7615978717804,None,341.74601101875305,None,2,1,0.8958840370178223,341.74601101875305,None,,,,,1000,001,09,2021_Nov_02_1532,task-switching-replication,2021.2.3,60.005980133937825,
2,19,experiment,09,sitting,noswitch,incongruant,solid,triangle,blue,stimuli/solid-rectangle.png,stimuli/blue-triangle.png,1,,,,,,,,,,,,,,,,,,,,,,,,,0,0,0,0,1,0,1,0,0,18,18,18,,,,,,,,,,,,,,,,,,,,,,,,,,,,,,,,,,,,,,,,,,,,,,,,,,,,,,,,,,,,,,,,,,,,,,,,345.1829688549042,None,,,,,,,,,,,,,,,,,,,,,,,,,,,,,,,,,,,,,,342.99745893478394,None,343.98170804977417,None,1,1,1.0480248928070068,343.98170804977417,None,,,,,1000,001,09,2021_Nov_02_1532,task-switching-replication,2021.2.3,60.005980133937825,
2,20,experiment,09,sitting,switch,congruant,dashed,triangle,blue,stimuli/dashed-rectangle.png,stimuli/blue-triangle.png,1,,,,,,,,,,,,,,,,,,,,,,,,,0,0,0,0,1,0,1,0,0,19,19,19,,,,,,,,,,,,,,,,,,,,,,,,,,,,,,,,,,,,,,,,,,,,,,,,,,,,,,,,,,,,,,,,,,,,,,,,347.5370419025421,None,,,,,,,,,,,,,,,,,,,,,,,,,,,,,,,,,,,,,,345.41197395324707,None,346.3959720134735,None,1,1,1.0477700233459473,346.3959720134735,None,,,,,1000,001,09,2021_Nov_02_1532,task-switching-replication,2021.2.3,60.005980133937825,
2,21,experiment,09,sitting,switch,congruant,solid,square,blue,stimuli/solid-rectangle.png,stimuli/blue-square.png,1,,,,,,,,,,,,,,,,,,,,,,,,,0,0,0,0,1,0,1,0,0,20,20,20,,,,,,,,,,,,,,,,,,,,,,,,,,,,,,,,,,,,,,,,,,,,,,,,,,,,,,,,,,,,,,,,,,,,,,,,349.5950698852539,None,,,,,,,,,,,,,,,,,,,,,,,,,,,,,,,,,,,,,,347.7657070159912,None,348.7493989467621,None,1,1,0.6982030868530273,348.7493989467621,None,,,,,1000,001,09,2021_Nov_02_1532,task-switching-replication,2021.2.3,60.005980133937825,
2,22,experiment,09,sitting,switch,incongruant,dashed,square,blue,stimuli/dashed-rectangle.png,stimuli/blue-square.png,2,,,,,,,,,,,,,,,,,,,,,,,,,0,0,0,0,1,0,1,0,0,21,21,21,,,,,0,0,0,0,,,,,,,,,,,,,,,,,,,,,,,,,,,,,,,,,,,,,,,,,,,,,,,,,,,,,,,,,,,,,,,,,,,,,,,,,,,,,,,,,,,,,,,,,,,,,,,,,,,,,,,349.8241539001465,None,350.80873703956604,None,1,0,0.7649660110473633,350.80873703956604,None,351.6860771179199,352.7038679122925,351.71941804885864,None,1000,001,09,2021_Nov_02_1532,task-switching-replication,2021.2.3,60.005980133937825,
2,22,experiment,09,sitting,switch,incongruant,dashed,square,blue,stimuli/dashed-rectangle.png,stimuli/blue-square.png,2,,,,,,,,,,,,,,,,,,,,,,,,,0,0,0,0,1,0,1,0,0,21,21,21,,,,,,,,,,,,,,,,,,,,,,,,,,,,,,,,,,,,,,,,,,,,,,,,,,,,,,,,,,,,,,,,,,,,,,,,356.7438099384308,None,,,,,,,,,,,,,,,,,,,,,,,,,,,,,,,,,,,,,,,,,,,,,,,,,,,1000,001,09,2021_Nov_02_1532,task-switching-replication,2021.2.3,60.005980133937825,
2,23,experiment,09,sitting,switch,congruant,solid,triangle,yellow,stimuli/solid-rectangle.png,stimuli/yellow-triangle.png,2,,,,,,,,,,,,,,,,,,,,,,,,,0,0,0,0,1,0,1,0,0,22,22,22,,,,,,,,,,,,,,,,,,,,,,,,,,,,,,,,,,,,,,,,,,,,,,,,,,,,,,,,,,,,,,,,,,,,,,,,358.71093797683716,None,,,,,,,,,,,,,,,,,,,,,,,,,,,,,,,,,,,,,,356.93998289108276,None,357.9237608909607,None,2,1,0.6519560813903809,357.9237608909607,None,,,,,1000,001,09,2021_Nov_02_1532,task-switching-replication,2021.2.3,60.005980133937825,
2,24,experiment,09,sitting,switch,congruant,dashed,square,yellow,stimuli/dashed-rectangle.png,stimuli/yellow-square.png,2,,,,,,,,,,,,,,,,,,,,,,,,,0,0,0,0,1,0,1,0,0,23,23,23,,,,,,,,,,,,,,,,,,,,,,,,,,,,,,,,,,,,,,,,,,,,,,,,,,,,,,,,,,,,,,,,,,,,,,,,360.7112669944763,None,,,,,,,,,,,,,,,,,,,,,,,,,,,,,,,,,,,,,,358.94011998176575,None,359.92432284355164,None,2,1,0.6385478973388672,359.92432284355164,None,,,,,1000,001,09,2021_Nov_02_1532,task-switching-replication,2021.2.3,60.005980133937825,
2,25,experiment,09,sitting,switch,congruant,solid,square,yellow,stimuli/solid-rectangle.png,stimuli/yellow-square.png,2,,,,,,,,,,,,,,,,,,,,,,,,,0,0,0,0,1,0,1,0,0,24,24,24,,,,,,,,,,,,,,,,,,,,,,,,,,,,,,,,,,,,,,,,,,,,,,,,,,,,,,,,,,,,,,,,,,,,,,,,362.94971895217896,None,,,,,,,,,,,,,,,,,,,,,,,,,,,,,,,,,,,,,,360.94108986854553,None,361.92640590667725,None,2,1,0.8903090953826904,361.92640590667725,None,,,,,1000,001,09,2021_Nov_02_1532,task-switching-replication,2021.2.3,60.005980133937825,
2,26,experiment,09,sitting,noswitch,congruant,solid,square,yellow,stimuli/solid-rectangle.png,stimuli/yellow-square.png,2,,,,,,,,,,,,,,,,,,,,,,,,,0,0,0,0,1,0,1,0,0,25,25,25,,,,,,,,,,,,,,,,,,,,,,,,,,,,,,,,,,,,,,,,,,,,,,,,,,,,,,,,,,,,,,,,,,,,,,,,364.95081901550293,None,,,,,,,,,,,,,,,,,,,,,,,,,,,,,,,,,,,,,,363.17894887924194,None,364.1636588573456,None,2,1,0.6670758724212646,364.1636588573456,None,,,,,1000,001,09,2021_Nov_02_1532,task-switching-replication,2021.2.3,60.005980133937825,
2,27,experiment,09,sitting,switch,incongruant,dashed,triangle,yellow,stimuli/dashed-rectangle.png,stimuli/yellow-triangle.png,1,,,,,,,,,,,,,,,,,,,,,,,,,0,0,0,0,1,0,1,0,0,26,26,26,,,,,,,,,,,,,,,,,,,,,,,,,,,,,,,,,,,,,,,,,,,,,,,,,,,,,,,,,,,,,,,,,,,,,,,,367.009299993515,None,,,,,,,,,,,,,,,,,,,,,,,,,,,,,,,,,,,,,,365.17964696884155,None,366.1633698940277,None,1,1,0.732511043548584,366.1633698940277,None,,,,,1000,001,09,2021_Nov_02_1532,task-switching-replication,2021.2.3,60.005980133937825,
2,28,experiment,09,sitting,switch,congruant,solid,triangle,blue,stimuli/solid-rectangle.png,stimuli/blue-triangle.png,1,,,,,,,,,,,,,,,,,,,,,,,,,0,0,0,0,1,0,1,0,0,27,27,27,,,,,,,,,,,,,,,,,,,,,,,,,,,,,,,,,,,,,,,,,,,,,,,,,,,,,,,,,,,,,,,,,,,,,,,,369.2451078891754,None,,,,,,,,,,,,,,,,,,,,,,,,,,,,,,,,,,,,,,367.2381670475006,None,368.22192883491516,None,1,1,0.8956739902496338,368.22192883491516,None,,,,,1000,001,09,2021_Nov_02_1532,task-switching-replication,2021.2.3,60.005980133937825,
2,29,experiment,09,sitting,noswitch,incongruant,solid,square,yellow,stimuli/solid-rectangle.png,stimuli/yellow-square.png,2,,,,,,,,,,,,,,,,,,,,,,,,,0,0,0,0,1,0,1,0,0,28,28,28,,,,,,,,,,,,,,,,,,,,,,,,,,,,,,,,,,,,,,,,,,,,,,,,,,,,,,,,,,,,,,,,,,,,,,,,371.30430698394775,None,,,,,,,,,,,,,,,,,,,,,,,,,,,,,,,,,,,,,,369.4743869304657,None,370.458860874176,None,2,1,0.729525089263916,370.458860874176,None,,,,,1000,001,09,2021_Nov_02_1532,task-switching-replication,2021.2.3,60.005980133937825,
2,30,experiment,09,sitting,noswitch,congruant,solid,triangle,yellow,stimuli/solid-rectangle.png,stimuli/yellow-triangle.png,2,,,,,,,,,,,,,,,,,,,,,,,,,0,0,0,0,1,0,1,0,0,29,29,29,,,,,,,,,,,,,,,,,,,,,,,,,,,,,,,,,,,,,,,,,,,,,,,,,,,,,,,,,,,,,,,,,,,,,,,,373.3047330379486,None,,,,,,,,,,,,,,,,,,,,,,,,,,,,,,,,,,,,,,371.53379797935486,None,372.51782298088074,None,2,1,0.6658258438110352,372.51782298088074,None,,,,,1000,001,09,2021_Nov_02_1532,task-switching-replication,2021.2.3,60.005980133937825,
2,31,experiment,09,sitting,noswitch,incongruant,solid,triangle,blue,stimuli/solid-rectangle.png,stimuli/blue-triangle.png,1,,,,,,,,,,,,,,,,,,,,,,,,,0,0,0,0,1,0,1,0,0,30,30,30,,,,,,,,,,,,,,,,,,,,,,,,,,,,,,,,,,,,,,,,,,,,,,,,,,,,,,,,,,,,,,,,,,,,,,,,375.0097670555115,None,,,,,,,,,,,,,,,,,,,,,,,,,,,,,,,,,,,,,,373.53387999534607,None,374.5179898738861,None,1,1,0.3477771282196045,374.5179898738861,None,,,,,1000,001,09,2021_Nov_02_1532,task-switching-replication,2021.2.3,60.005980133937825,
2,32,experiment,09,sitting,switch,congruant,dashed,triangle,blue,stimuli/dashed-rectangle.png,stimuli/blue-triangle.png,1,,,,,,,,,,,,,,,,,,,,,,,,,0,0,0,0,1,0,1,0,0,31,31,31,,,,,,,,,,,,,,,,,,,,,,,,,,,,,,,,,,,,,,,,,,,,,,,,,,,,,,,,,,,,,,,,,,,,,,,,377.0081560611725,None,,,,,,,,,,,,,,,,,,,,,,,,,,,,,,,,,,,,,,375.23868584632874,None,376.22106194496155,None,1,1,0.6625020503997803,376.22106194496155,None,,,,,1000,001,09,2021_Nov_02_1532,task-switching-replication,2021.2.3,60.005980133937825,
2,33,experiment,09,sitting,noswitch,congruant,dashed,triangle,yellow,stimuli/dashed-rectangle.png,stimuli/yellow-triangle.png,1,,,,,,,,,,,,,,,,,,,,,,,,,0,0,0,0,1,0,1,0,0,32,32,32,,,,,,,,,,,,,,,,,,,,,,,,,,,,,,,,,,,,,,,,,,,,,,,,,,,,,,,,,,,,,,,,,,,,,,,,379.0089108943939,None,,,,,,,,,,,,,,,,,,,,,,,,,,,,,,,,,,,,,,377.23723697662354,None,378.22163486480713,None,1,1,0.6849942207336426,378.22163486480713,None,,,,,1000,001,09,2021_Nov_02_1532,task-switching-replication,2021.2.3,60.005980133937825,
2,34,experiment,09,sitting,noswitch,congruant,dashed,triangle,yellow,stimuli/dashed-rectangle.png,stimuli/yellow-triangle.png,1,,,,,,,,,,,,,,,,,,,,,,,,,0,0,0,0,1,0,1,0,0,33,33,33,,,,,,,,,,,,,,,,,,,,,,,,,,,,,,,,,,,,,,,,,,,,,,,,,,,,,,,,,,,,,,,,,,,,,,,,381.007985830307,None,,,,,,,,,,,,,,,,,,,,,,,,,,,,,,,,,,,,,,379.2375659942627,None,380.2213969230652,None,1,1,0.671104907989502,380.2213969230652,None,,,,,1000,001,09,2021_Nov_02_1532,task-switching-replication,2021.2.3,60.005980133937825,
2,35,experiment,09,sitting,noswitch,incongruant,dashed,square,blue,stimuli/dashed-rectangle.png,stimuli/blue-square.png,2,,,,,,,,,,,,,,,,,,,,,,,,,0,0,0,0,1,0,1,0,0,34,34,34,,,,,,,,,,,,,,,,,,,,,,,,,,,,,,,,,,,,,,,,,,,,,,,,,,,,,,,,,,,,,,,,,,,,,,,,383.13076186180115,None,,,,,,,,,,,,,,,,,,,,,,,,,,,,,,,,,,,,,,381.2369029521942,None,382.22160506248474,None,2,1,0.785916805267334,382.22160506248474,None,,,,,1000,001,09,2021_Nov_02_1532,task-switching-replication,2021.2.3,60.005980133937825,
2,36,experiment,09,sitting,noswitch,incongruant,dashed,triangle,yellow,stimuli/dashed-rectangle.png,stimuli/yellow-triangle.png,1,,,,,,,,,,,,,,,,,,,,,,,,,0,0,0,0,1,0,1,0,0,35,35,35,,,,,,,,,,,,,,,,,,,,,,,,,,,,,,,,,,,,,,,,,,,,,,,,,,,,,,,,,,,,,,,,,,,,,,,,385.18901896476746,None,,,,,,,,,,,,,,,,,,,,,,,,,,,,,,,,,,,,,,383.35966396331787,None,384.3437850475311,None,1,1,0.7438619136810303,384.3437850475311,None,,,,,1000,001,09,2021_Nov_02_1532,task-switching-replication,2021.2.3,60.005980133937825,
2,37,experiment,09,sitting,noswitch,incongruant,dashed,square,blue,stimuli/dashed-rectangle.png,stimuli/blue-square.png,2,,,,,,,,,,,,,,,,,,,,,,,,,0,0,0,0,1,0,1,0,0,36,36,36,,,,,,,,,,,,,,,,,,,,,,,,,,,,,,,,,,,,,,,,,,,,,,,,,,,,,,,,,,,,,,,,,,,,,,,,387.18571305274963,None,,,,,,,,,,,,,,,,,,,,,,,,,,,,,,,,,,,,,,385.41936588287354,None,386.3968620300293,None,2,1,0.6357169151306152,386.3968620300293,None,,,,,1000,001,09,2021_Nov_02_1532,task-switching-replication,2021.2.3,60.005980133937825,
2,38,experiment,09,sitting,noswitch,incongruant,dashed,triangle,blue,stimuli/dashed-rectangle.png,stimuli/blue-triangle.png,1,,,,,,,,,,,,,,,,,,,,,,,,,0,0,0,0,1,0,1,0,0,37,37,37,,,,,,,,,,,,,,,,,,,,,,,,,,,,,,,,,,,,,,,,,,,,,,,,,,,,,,,,,,,,,,,,,,,,,,,,389.07044982910156,None,,,,,,,,,,,,,,,,,,,,,,,,,,,,,,,,,,,,,,387.414913892746,None,388.40005898475647,None,1,1,0.5174009799957275,388.40005898475647,None,,,,,1000,001,09,2021_Nov_02_1532,task-switching-replication,2021.2.3,60.005980133937825,
2,39,experiment,09,sitting,switch,congruant,solid,triangle,blue,stimuli/solid-rectangle.png,stimuli/blue-triangle.png,1,,,,,,,,,,,,,,,,,,,,,,,,,0,0,0,0,1,0,1,0,0,38,38,38,,,,,,,,,,,,,,,,,,,,,,,,,,,,,,,,,,,,,,,,,,,,,,,,,,,,,,,,,,,,,,,,,,,,,,,,391.4244649410248,None,,,,,,,,,,,,,,,,,,,,,,,,,,,,,,,,,,,,,,389.29971504211426,None,390.28357696533203,None,1,1,0.9969789981842041,390.28357696533203,None,,,,,1000,001,09,2021_Nov_02_1532,task-switching-replication,2021.2.3,60.005980133937825,
2,40,experiment,09,sitting,switch,incongruant,dashed,square,yellow,stimuli/dashed-rectangle.png,stimuli/yellow-square.png,2,,,,,,,,,,,,,,,,,,,,,,,,,0,0,0,0,1,0,1,0,0,39,39,39,,,,,,,,,,,,,,,,,,,,,,,,,,,,,,,,,,,,,,,,,,,,,,,,,,,,,,,,,,,,,,,,,,,,,,,,393.9549570083618,None,,,,,,,,,,,,,,,,,,,,,,,,,,,,,,,,,,,,,,391.65323185920715,None,392.6373538970947,None,2,1,1.1643660068511963,392.6373538970947,None,,,,,1000,001,09,2021_Nov_02_1532,task-switching-replication,2021.2.3,60.005980133937825,
2,41,experiment,09,sitting,noswitch,incongruant,dashed,triangle,yellow,stimuli/dashed-rectangle.png,stimuli/yellow-triangle.png,1,,,,,,,,,,,,,,,,,,,,,,,,,0,0,0,0,1,0,1,0,0,40,40,40,,,,,,,,,,,,,,,,,,,,,,,,,,,,,,,,,,,,,,,,,,,,,,,,,,,,,,,,,,,,,,,,,,,,,,,,396.0134069919586,None,,,,,,,,,,,,,,,,,,,,,,,,,,,,,,,,,,,,,,394.1838309764862,None,395.16816091537476,None,1,1,0.7454450130462646,395.16816091537476,None,,,,,1000,001,09,2021_Nov_02_1532,task-switching-replication,2021.2.3,60.005980133937825,
2,42,experiment,09,sitting,switch,incongruant,solid,square,yellow,stimuli/solid-rectangle.png,stimuli/yellow-square.png,2,,,,,,,,,,,,,,,,,,,,,,,,,0,0,0,0,1,0,1,0,0,41,41,41,,,,,,,,,,,,,,,,,,,,,,,,,,,,,,,,,,,,,,,,,,,,,,,,,,,,,,,,,,,,,,,,,,,,,,,,398.1920428276062,None,,,,,,,,,,,,,,,,,,,,,,,,,,,,,,,,,,,,,,396.242604970932,None,397.2254149913788,None,2,1,0.8081579208374023,397.2254149913788,None,,,,,1000,001,09,2021_Nov_02_1532,task-switching-replication,2021.2.3,60.005980133937825,
2,43,experiment,09,sitting,noswitch,incongruant,solid,square,blue,stimuli/solid-rectangle.png,stimuli/blue-square.png,1,,,,,,,,,,,,,,,,,,,,,,,,,0,0,0,0,1,0,1,0,0,42,42,42,0,0,0,0,,,,,,,,,,,,,,,,,,,,,,,,,,,,,,,,,,,,,,,,,,,,,,,,,,,,,,,,,,,,,,,,,,,,,,400.104455947876,401.15680503845215,400.1368999481201,None,,,,,,,,,,,,,,,,,,,,,,,,,,,,,,,,,,398.42065501213074,None,399.40497493743896,None,2,0,0.5825378894805908,399.40497493743896,None,,,,,1000,001,09,2021_Nov_02_1532,task-switching-replication,2021.2.3,60.005980133937825,
2,43,experiment,09,sitting,noswitch,incongruant,solid,square,blue,stimuli/solid-rectangle.png,stimuli/blue-square.png,1,,,,,,,,,,,,,,,,,,,,,,,,,0,0,0,0,1,0,1,0,0,42,42,42,,,,,,,,,,,,,,,,,,,,,,,,,,,,,,,,,,,,,,,,,,,,,,,,,,,,,,,,,,,,,,,,,,,,,,,,405.15866804122925,None,,,,,,,,,,,,,,,,,,,,,,,,,,,,,,,,,,,,,,,,,,,,,,,,,,,1000,001,09,2021_Nov_02_1532,task-switching-replication,2021.2.3,60.005980133937825,
2,44,experiment,09,sitting,switch,congruant,dashed,triangle,blue,stimuli/dashed-rectangle.png,stimuli/blue-triangle.png,1,,,,,,,,,,,,,,,,,,,,,,,,,0,0,0,0,1,0,1,0,0,43,43,43,,,,,,,,,,,,,,,,,,,,,,,,,,,,,,,,,,,,,,,,,,,,,,,,,,,,,,,,,,,,,,,,,,,,,,,,407.18402099609375,None,,,,,,,,,,,,,,,,,,,,,,,,,,,,,,,,,,,,,,405.3557188510895,None,406.3387348651886,None,1,1,0.7118771076202393,406.3387348651886,None,,,,,1000,001,09,2021_Nov_02_1532,task-switching-replication,2021.2.3,60.005980133937825,
2,45,experiment,09,sitting,switch,congruant,solid,square,blue,stimuli/solid-rectangle.png,stimuli/blue-square.png,1,,,,,,,,,,,,,,,,,,,,,,,,,0,0,0,0,1,0,1,0,0,44,44,44,,,,,,,,,,,,,,,,,,,,,,,,,,,,,,,,,,,,,,,,,,,,,,,,,,,,,,,,,,,,,,,,,,,,,,,,409.3599648475647,None,,,,,,,,,,,,,,,,,,,,,,,,,,,,,,,,,,,,,,407.41257905960083,None,408.39651799201965,None,1,1,0.8637700080871582,408.39651799201965,None,,,,,1000,001,09,2021_Nov_02_1532,task-switching-replication,2021.2.3,60.005980133937825,
2,46,experiment,09,sitting,switch,incongruant,dashed,square,yellow,stimuli/dashed-rectangle.png,stimuli/yellow-square.png,2,,,,,,,,,,,,,,,,,,,,,,,,,0,0,0,0,1,0,1,0,0,45,45,45,,,,,,,,,,,,,,,,,,,,,,,,,,,,,,,,,,,,,,,,,,,,,,,,,,,,,,,,,,,,,,,,,,,,,,,,411.35937690734863,None,,,,,,,,,,,,,,,,,,,,,,,,,,,,,,,,,,,,,,409.5887088775635,None,410.57255601882935,None,2,1,0.6780378818511963,410.57255601882935,None,,,,,1000,001,09,2021_Nov_02_1532,task-switching-replication,2021.2.3,60.005980133937825,
2,47,experiment,09,sitting,switch,congruant,solid,square,yellow,stimuli/solid-rectangle.png,stimuli/yellow-square.png,2,,,,,,,,,,,,,,,,,,,,,,,,,0,0,0,0,1,0,1,0,0,46,46,46,,,,,,,,,,,,,,,,,,,,,,,,,,,,,,,,,,,,,,,,,,,,,,,,,,,,,,,,,,,,,,,,,,,,,,,,413.183198928833,None,,,,,,,,,,,,,,,,,,,,,,,,,,,,,,,,,,,,,,411.58878898620605,None,412.5734848976135,None,2,1,0.5149309635162354,412.5734848976135,None,,,,,1000,001,09,2021_Nov_02_1532,task-switching-replication,2021.2.3,60.005980133937825,
2,48,experiment,09,sitting,switch,incongruant,dashed,triangle,blue,stimuli/dashed-rectangle.png,stimuli/blue-triangle.png,1,,,,,,,,,,,,,,,,,,,,,,,,,0,0,0,0,1,0,1,0,0,47,47,47,,,,,,,,,,,,,,,,,,,,,,,,,,,,,,,,,,,,,,,,,,,,,,,,,,,,,,,,,,,,,,,,,,,,,,,,414.8882169723511,None,,,,,,,,,,,,,,,,,,,,,,,,,,,,,,,,,,,,,,413.4121220111847,None,414.3972249031067,None,1,1,0.3946959972381592,414.3972249031067,None,,,,,1000,001,09,2021_Nov_02_1532,task-switching-replication,2021.2.3,60.005980133937825,
2,49,experiment,09,sitting,switch,congruant,solid,triangle,blue,stimuli/solid-rectangle.png,stimuli/blue-triangle.png,1,,,,,,,,,,,,,,,,,,,,,,,,,0,0,0,0,1,0,1,0,0,48,48,48,,,,,,,,,,,,,,,,,,,,,,,,,,,,,,,,,,,,,,,,,,,,,,,,,,,,,,,,,,,,,,,,,,,,,,,,416.65282702445984,None,,,,,,,,,,,,,,,,,,,,,,,,,,,,,,,,,,,,,,415.11684703826904,None,416.1020288467407,None,1,1,0.40924906730651855,416.1020288467407,None,,,,,1000,001,09,2021_Nov_02_1532,task-switching-replication,2021.2.3,60.005980133937825,
,,,09,,,,,,,,,,,,,,,,,,,,,,,,,,,,,,,,,,0,0,0,0,1,0,1,0,,,,,,,,,,,,,,,,,,,,,,,,,,,,,,,,,,,,,,,,,,,,,,,,,,,,,,,,,,,,,,,,,,,,,,,,,,,,,,,,,,,,,,,,,,,,,,,,,,,,,,,,,,,,,,,,,,,,,,,,,,,,,,,,1000,001,09,2021_Nov_02_1532,task-switching-replication,2021.2.3,60.005980133937825,
3,1,experiment,09,sitting,buffer,buffer,dashed,square,blue,stimuli/dashed-rectangle.png,stimuli/blue-square.png,2,,,,,,,,,,,,,,,,,,,,,,,,,0,0,0,0,2,0,2,0,0,0,0,0,,,,,,,,,,,,,,,,,,,,,,,,,,,,,,,,,,,,,,,,,,,,,,,,,,,,,,,,,,,,,,,,,,,,,,,,421.3144519329071,None,,,,,,,,,,,,,,,,,,,,,,,,,,416.8821949958801,None,1,0.9722049236297607,416.8821949958801,None,417.980605840683,None,1,1.161634922027588,417.980605840683,None,419.30448293685913,None,420.2898819446564,None,2,1,0.885504961013794,420.2898819446564,None,,,,,1000,001,09,2021_Nov_02_1532,task-switching-replication,2021.2.3,60.005980133937825,
3,2,experiment,09,sitting,noswitch,incongruant,dashed,triangle,blue,stimuli/dashed-rectangle.png,stimuli/blue-triangle.png,1,,,,,,,,,,,,,,,,,,,,,,,,,0,0,0,0,2,0,2,0,0,1,1,1,,,,,,,,,,,,,,,,,,,,,,,,,,,,,,,,,,,,,,,,,,,,,,,,,,,,,,,,,,,,,,,,,,,,,,,,423.2561218738556,None,,,,,,,,,,,,,,,,,,,,,,,,,,,,,,,,,,,,,,421.54411482810974,None,422.5286259651184,None,1,1,0.6204941272735596,422.5286259651184,None,,,,,1000,001,09,2021_Nov_02_1532,task-switching-replication,2021.2.3,60.005980133937825,
3,3,experiment,09,sitting,switch,congruant,solid,square,blue,stimuli/solid-rectangle.png,stimuli/blue-square.png,1,,,,,,,,,,,,,,,,,,,,,,,,,0,0,0,0,2,0,2,0,0,2,2,2,0,0,0,0,,,,,,,,,,,,,,,,,,,,,,,,,,,,,,,,,,,,,,,,,,,,,,,,,,,,,,,,,,,,,,,,,,,,,,425.2334051132202,426.28502893447876,425.2657940387726,None,,,,,,,,,,,,,,,,,,,,,,,,,,,,,,,,,,423.48528003692627,None,424.47023606300354,None,2,0,0.6472899913787842,424.47023606300354,None,,,,,1000,001,09,2021_Nov_02_1532,task-switching-replication,2021.2.3,60.005980133937825,
3,3,experiment,09,sitting,switch,congruant,solid,square,blue,stimuli/solid-rectangle.png,stimuli/blue-square.png,1,,,,,,,,,,,,,,,,,,,,,,,,,0,0,0,0,2,0,2,0,0,2,2,2,,,,,,,,,,,,,,,,,,,,,,,,,,,,,,,,,,,,,,,,,,,,,,,,,,,,,,,,,,,,,,,,,,,,,,,,430.2858920097351,None,,,,,,,,,,,,,,,,,,,,,,,,,,,,,,,,,,,,,,,,,,,,,,,,,,,1000,001,09,2021_Nov_02_1532,task-switching-replication,2021.2.3,60.005980133937825,
3,4,experiment,09,sitting,switch,incongruant,dashed,square,blue,stimuli/dashed-rectangle.png,stimuli/blue-square.png,2,,,,,,,,,,,,,,,,,,,,,,,,,0,0,0,0,2,0,2,0,0,3,3,3,,,,,,,,,,,,,,,,,,,,,,,,,,,,,,,,,,,,,,,,,,,,,,,,,,,,,,,,,,,,,,,,,,,,,,,,432.3144299983978,None,,,,,,,,,,,,,,,,,,,,,,,,,,,,,,,,,,,,,,430.4840250015259,None,431.46831583976746,None,2,1,0.7449920177459717,431.46831583976746,None,,,,,1000,001,09,2021_Nov_02_1532,task-switching-replication,2021.2.3,60.005980133937825,
3,5,experiment,09,sitting,noswitch,congruant,dashed,square,blue,stimuli/dashed-rectangle.png,stimuli/blue-square.png,2,,,,,,,,,,,,,,,,,,,,,,,,,0,0,0,0,2,0,2,0,0,4,4,4,,,,,,,,,,,,,,,,,,,,,,,,,,,,,,,,,,,,,,,,,,,,,,,,,,,,,,,,,,,,,,,,,,,,,,,,434.0192470550537,None,,,,,,,,,,,,,,,,,,,,,,,,,,,,,,,,,,,,,,432.5434019565582,None,433.52751302719116,None,2,1,0.3919248580932617,433.52751302719116,None,,,,,1000,001,09,2021_Nov_02_1532,task-switching-replication,2021.2.3,60.005980133937825,
3,6,experiment,09,sitting,noswitch,congruant,dashed,square,yellow,stimuli/dashed-rectangle.png,stimuli/yellow-square.png,2,,,,,,,,,,,,,,,,,,,,,,,,,0,0,0,0,2,0,2,0,0,5,5,5,,,,,,,,,,,,,,,,,,,,,,,,,,,,,,,,,,,,,,,,,,,,,,,,,,,,,,,,,,,,,,,,,,,,,,,,435.96136498451233,None,,,,,,,,,,,,,,,,,,,,,,,,,,,,,,,,,,,,,,434.2481210231781,None,435.2333240509033,None,2,1,0.61798095703125,435.2333240509033,None,,,,,1000,001,09,2021_Nov_02_1532,task-switching-replication,2021.2.3,60.005980133937825,
3,7,experiment,09,sitting,switch,incongruant,solid,triangle,blue,stimuli/solid-rectangle.png,stimuli/blue-triangle.png,1,,,,,,,,,,,,,,,,,,,,,,,,,0,0,0,0,2,0,2,0,0,6,6,6,,,,,,,,,,,,,,,,,,,,,,,,,,,,,,,,,,,,,,,,,,,,,,,,,,,,,,,,,,,,,,,,,,,,,,,,437.7886688709259,None,,,,,,,,,,,,,,,,,,,,,,,,,,,,,,,,,,,,,,436.19011402130127,None,437.17477798461914,None,1,1,0.4905979633331299,437.17477798461914,None,,,,,1000,001,09,2021_Nov_02_1532,task-switching-replication,2021.2.3,60.005980133937825,
3,8,experiment,09,sitting,noswitch,incongruant,solid,triangle,yellow,stimuli/solid-rectangle.png,stimuli/yellow-triangle.png,2,,,,,,,,,,,,,,,,,,,,,,,,,0,0,0,0,2,0,2,0,0,7,7,7,,,,,,,,,,,,,,,,,,,,,,,,,,,,,,,,,,,,,,,,,,,,,,,,,,,,,,,,,,,,,,,,,,,,,,,,439.96639585494995,None,,,,,,,,,,,,,,,,,,,,,,,,,,,,,,,,,,,,,,438.0174648761749,None,439.00093603134155,None,2,1,0.8365879058837891,439.00093603134155,None,,,,,1000,001,09,2021_Nov_02_1532,task-switching-replication,2021.2.3,60.005980133937825,
3,9,experiment,09,sitting,switch,incongruant,dashed,triangle,blue,stimuli/dashed-rectangle.png,stimuli/blue-triangle.png,1,,,,,,,,,,,,,,,,,,,,,,,,,0,0,0,0,2,0,2,0,0,8,8,8,,,,,,,,,,,,,,,,,,,,,,,,,,,,,,,,,,,,,,,,,,,,,,,,,,,,,,,,,,,,,,,,,,,,,,,,441.90865898132324,None,,,,,,,,,,,,,,,,,,,,,,,,,,,,,,,,,,,,,,440.1954679489136,None,441.1803619861603,None,1,1,0.5848751068115234,441.1803619861603,None,,,,,1000,001,09,2021_Nov_02_1532,task-switching-replication,2021.2.3,60.005980133937825,
3,10,experiment,09,sitting,noswitch,congruant,dashed,triangle,yellow,stimuli/dashed-rectangle.png,stimuli/yellow-triangle.png,1,,,,,,,,,,,,,,,,,,,,,,,,,0,0,0,0,2,0,2,0,0,9,9,9,,,,,,,,,,,,,,,,,,,,,,,,,,,,,,,,,,,,,,,,,,,,,,,,,,,,,,,,,,,,,,,,,,,,,,,,443.909029006958,None,,,,,,,,,,,,,,,,,,,,,,,,,,,,,,,,,,,,,,442.1374340057373,None,443.1224219799042,None,1,1,0.6856899261474609,443.1224219799042,None,,,,,1000,001,09,2021_Nov_02_1532,task-switching-replication,2021.2.3,60.005980133937825,
3,11,experiment,09,sitting,noswitch,incongruant,dashed,square,blue,stimuli/dashed-rectangle.png,stimuli/blue-square.png,2,,,,,,,,,,,,,,,,,,,,,,,,,0,0,0,0,2,0,2,0,0,10,10,10,,,,,,,,,,,,,,,,,,,,,,,,,,,,,,,,,,,,,,,,,,,,,,,,,,,,,,,,,,,,,,,,,,,,,,,,445.5556058883667,None,,,,,,,,,,,,,,,,,,,,,,,,,,,,,,,,,,,,,,444.13819193840027,None,445.12332487106323,None,2,1,0.33611512184143066,445.12332487106323,None,,,,,1000,001,09,2021_Nov_02_1532,task-switching-replication,2021.2.3,60.005980133937825,
3,12,experiment,09,sitting,switch,congruant,solid,triangle,yellow,stimuli/solid-rectangle.png,stimuli/yellow-triangle.png,2,,,,,,,,,,,,,,,,,,,,,,,,,0,0,0,0,2,0,2,0,0,11,11,11,,,,,,,,,,,,,,,,,,,,,,,,,,,,,,,,,,,,,,,,,,,,,,,,,,,,,,,,,,,,,,,,,,,,,,,,447.2012870311737,None,,,,,,,,,,,,,,,,,,,,,,,,,,,,,,,,,,,,,,445.78422594070435,None,446.76871490478516,None,2,1,0.3254830837249756,446.76871490478516,None,,,,,1000,001,09,2021_Nov_02_1532,task-switching-replication,2021.2.3,60.005980133937825,
3,13,experiment,09,sitting,noswitch,incongruant,solid,triangle,blue,stimuli/solid-rectangle.png,stimuli/blue-triangle.png,1,,,,,,,,,,,,,,,,,,,,,,,,,0,0,0,0,2,0,2,0,0,12,12,12,,,,,,,,,,,,,,,,,,,,,,,,,,,,,,,,,,,,,,,,,,,,,,,,,,,,,,,,,,,,,,,,,,,,,,,,448.9649610519409,None,,,,,,,,,,,,,,,,,,,,,,,,,,,,,,,,,,,,,,447.4303288459778,None,448.4147219657898,None,1,1,0.43961000442504883,448.4147219657898,None,,,,,1000,001,09,2021_Nov_02_1532,task-switching-replication,2021.2.3,60.005980133937825,
3,14,experiment,09,sitting,noswitch,congruant,solid,square,blue,stimuli/solid-rectangle.png,stimuli/blue-square.png,1,,,,,,,,,,,,,,,,,,,,,,,,,0,0,0,0,2,0,2,0,0,13,13,13,,,,,,,,,,,,,,,,,,,,,,,,,,,,,,,,,,,,,,,,,,,,,,,,,,,,,,,,,,,,,,,,,,,,,,,,450.90545988082886,None,,,,,,,,,,,,,,,,,,,,,,,,,,,,,,,,,,,,,,449.1939969062805,None,450.17780685424805,None,1,1,0.6243348121643066,450.17780685424805,None,,,,,1000,001,09,2021_Nov_02_1532,task-switching-replication,2021.2.3,60.005980133937825,
3,15,experiment,09,sitting,noswitch,congruant,solid,triangle,blue,stimuli/solid-rectangle.png,stimuli/blue-triangle.png,1,,,,,,,,,,,,,,,,,,,,,,,,,0,0,0,0,2,0,2,0,0,14,14,14,,,,,,,,,,,,,,,,,,,,,,,,,,,,,,,,,,,,,,,,,,,,,,,,,,,,,,,,,,,,,,,,,,,,,,,,452.7907090187073,None,,,,,,,,,,,,,,,,,,,,,,,,,,,,,,,,,,,,,,451.13444995880127,None,452.1184959411621,None,1,1,0.49787211418151855,452.1184959411621,None,,,,,1000,001,09,2021_Nov_02_1532,task-switching-replication,2021.2.3,60.005980133937825,
3,16,experiment,09,sitting,switch,incongruant,dashed,square,yellow,stimuli/dashed-rectangle.png,stimuli/yellow-square.png,2,,,,,,,,,,,,,,,,,,,,,,,,,0,0,0,0,2,0,2,0,0,15,15,15,,,,,,,,,,,,,,,,,,,,,,,,,,,,,,,,,,,,,,,,,,,,,,,,,,,,,,,,,,,,,,,,,,,,,,,,454.8447120189667,None,,,,,,,,,,,,,,,,,,,,,,,,,,,,,,,,,,,,,,452.9551999568939,None,453.9395170211792,None,2,1,0.771906852722168,453.9395170211792,None,,,,,1000,001,09,2021_Nov_02_1532,task-switching-replication,2021.2.3,60.005980133937825,
3,17,experiment,09,sitting,noswitch,incongruant,dashed,triangle,yellow,stimuli/dashed-rectangle.png,stimuli/yellow-triangle.png,1,,,,,,,,,,,,,,,,,,,,,,,,,0,0,0,0,2,0,2,0,0,16,16,16,,,,,,,,,,,,,,,,,,,,,,,,,,,,,,,,,,,,,,,,,,,,,,,,,,,,,,,,,,,,,,,,,,,,,,,,457.1433439254761,None,,,,,,,,,,,,,,,,,,,,,,,,,,,,,,,,,,,,,,455.0736310482025,None,456.0575590133667,None,1,1,0.942389965057373,456.0575590133667,None,,,,,1000,001,09,2021_Nov_02_1532,task-switching-replication,2021.2.3,60.005980133937825,
3,18,experiment,09,sitting,switch,incongruant,solid,square,yellow,stimuli/solid-rectangle.png,stimuli/yellow-square.png,2,,,,,,,,,,,,,,,,,,,,,,,,,0,0,0,0,2,0,2,0,0,17,17,17,,,,,,,,,,,,,,,,,,,,,,,,,,,,,,,,,,,,,,,,,,,,,,,,,,,,,,,,,,,,,,,,,,,,,,,,459.3235318660736,None,,,,,,,,,,,,,,,,,,,,,,,,,,,,,,,,,,,,,,457.3722949028015,None,458.35675501823425,None,2,1,0.8135251998901367,458.35675501823425,None,,,,,1000,001,09,2021_Nov_02_1532,task-switching-replication,2021.2.3,60.005980133937825,
3,19,experiment,09,sitting,switch,congruant,dashed,square,yellow,stimuli/dashed-rectangle.png,stimuli/yellow-square.png,2,,,,,,,,,,,,,,,,,,,,,,,,,0,0,0,0,2,0,2,0,0,18,18,18,,,,,,,,,,,,,,,,,,,,,,,,,,,,,,,,,,,,,,,,,,,,,,,,,,,,,,,,,,,,,,,,,,,,,,,,461.61956691741943,None,,,,,,,,,,,,,,,,,,,,,,,,,,,,,,,,,,,,,,459.55280685424805,None,460.5374400615692,None,2,1,0.9608278274536133,460.5374400615692,None,,,,,1000,001,09,2021_Nov_02_1532,task-switching-replication,2021.2.3,60.005980133937825,
3,20,experiment,09,sitting,switch,congruant,solid,triangle,yellow,stimuli/solid-rectangle.png,stimuli/yellow-triangle.png,2,,,,,,,,,,,,,,,,,,,,,,,,,0,0,0,0,2,0,2,0,0,19,19,19,,,,,,,,,,,,,,,,,,,,,,,,,,,,,,,,,,,,,,,,,,,,,,,,,,,,,,,,,,,,,,,,,,,,,,,,463.67755103111267,None,,,,,,,,,,,,,,,,,,,,,,,,,,,,,,,,,,,,,,461.84828186035156,None,462.83211493492126,None,2,1,0.7190661430358887,462.83211493492126,None,,,,,1000,001,09,2021_Nov_02_1532,task-switching-replication,2021.2.3,60.005980133937825,
3,21,experiment,09,sitting,switch,congruant,dashed,square,yellow,stimuli/dashed-rectangle.png,stimuli/yellow-square.png,2,,,,,,,,,,,,,,,,,,,,,,,,,0,0,0,0,2,0,2,0,0,20,20,20,,,,,,,,,,,,,,,,,,,,,,,,,,,,,,,,,,,,,,,,,,,,,,,,,,,,,,,,,,,,,,,,,,,,,,,,465.97137999534607,None,,,,,,,,,,,,,,,,,,,,,,,,,,,,,,,,,,,,,,463.9064040184021,None,464.8901479244232,None,2,1,0.9461231231689453,464.8901479244232,None,,,,,1000,001,09,2021_Nov_02_1532,task-switching-replication,2021.2.3,60.005980133937825,
3,22,experiment,09,sitting,switch,incongruant,solid,square,blue,stimuli/solid-rectangle.png,stimuli/blue-square.png,1,,,,,,,,,,,,,,,,,,,,,,,,,0,0,0,0,2,0,2,0,0,21,21,21,,,,,,,,,,,,,,,,,,,,,,,,,,,,,,,,,,,,,,,,,,,,,,,,,,,,,,,,,,,,,,,,,,,,,,,,468.0306899547577,None,,,,,,,,,,,,,,,,,,,,,,,,,,,,,,,,,,,,,,466.20066595077515,None,467.18532490730286,None,1,1,0.7118120193481445,467.18532490730286,None,,,,,1000,001,09,2021_Nov_02_1532,task-switching-replication,2021.2.3,60.005980133937825,
3,23,experiment,09,sitting,noswitch,incongruant,solid,triangle,yellow,stimuli/solid-rectangle.png,stimuli/yellow-triangle.png,2,,,,,,,,,,,,,,,,,,,,,,,,,0,0,0,0,2,0,2,0,0,22,22,22,,,,,,,,,,,,,,,,,,,,,,,,,,,,,,,,,,,,,,,,,,,,,,,,,,,,,,,,,,,,,,,,,,,,,,,,470.2687408924103,None,,,,,,,,,,,,,,,,,,,,,,,,,,,,,,,,,,,,,,468.2592580318451,None,469.2435579299927,None,2,1,0.8915860652923584,469.2435579299927,None,,,,,1000,001,09,2021_Nov_02_1532,task-switching-replication,2021.2.3,60.005980133937825,
3,24,experiment,09,sitting,noswitch,incongruant,solid,square,blue,stimuli/solid-rectangle.png,stimuli/blue-square.png,1,,,,,,,,,,,,,,,,,,,,,,,,,0,0,0,0,2,0,2,0,0,23,23,23,,,,,,,,,,,,,,,,,,,,,,,,,,,,,,,,,,,,,,,,,,,,,,,,,,,,,,,,,,,,,,,,,,,,,,,,472.1479489803314,None,,,,,,,,,,,,,,,,,,,,,,,,,,,,,,,,,,,,,,470.49748396873474,None,471.48025393486023,None,1,1,0.5615320205688477,471.48025393486023,None,,,,,1000,001,09,2021_Nov_02_1532,task-switching-replication,2021.2.3,60.005980133937825,
3,25,experiment,09,sitting,switch,congruant,dashed,triangle,yellow,stimuli/dashed-rectangle.png,stimuli/yellow-triangle.png,1,,,,,,,,,,,,,,,,,,,,,,,,,0,0,0,0,2,0,2,0,0,24,24,24,,,,,,,,,,,,,,,,,,,,,,,,,,,,,,,,,,,,,,,,,,,,,,,,,,,,,,,,,,,,,,,,,,,,,,,,474.3241379261017,None,,,,,,,,,,,,,,,,,,,,,,,,,,,,,,,,,,,,,,472.3765368461609,None,473.36060786247253,None,1,1,0.8614821434020996,473.36060786247253,None,,,,,1000,001,09,2021_Nov_02_1532,task-switching-replication,2021.2.3,60.005980133937825,
3,26,experiment,09,sitting,noswitch,congruant,dashed,triangle,yellow,stimuli/dashed-rectangle.png,stimuli/yellow-triangle.png,1,,,,,,,,,,,,,,,,,,,,,,,,,0,0,0,0,2,0,2,0,0,25,25,25,,,,,,,,,,,,,,,,,,,,,,,,,,,,,,,,,,,,,,,,,,,,,,,,,,,,,,,,,,,,,,,,,,,,,,,,476.26417899131775,None,,,,,,,,,,,,,,,,,,,,,,,,,,,,,,,,,,,,,,474.55305886268616,None,475.53600883483887,None,1,1,0.5791018009185791,475.53600883483887,None,,,,,1000,001,09,2021_Nov_02_1532,task-switching-replication,2021.2.3,60.005980133937825,
3,27,experiment,09,sitting,switch,congruant,solid,triangle,blue,stimuli/solid-rectangle.png,stimuli/blue-triangle.png,1,,,,,,,,,,,,,,,,,,,,,,,,,0,0,0,0,2,0,2,0,0,26,26,26,,,,,,,,,,,,,,,,,,,,,,,,,,,,,,,,,,,,,,,,,,,,,,,,,,,,,,,,,,,,,,,,,,,,,,,,478.62569189071655,None,,,,,,,,,,,,,,,,,,,,,,,,,,,,,,,,,,,,,,476.49303102493286,None,477.47955083847046,None,1,1,1.0403709411621094,477.47955083847046,None,,,,,1000,001,09,2021_Nov_02_1532,task-switching-replication,2021.2.3,60.005980133937825,
3,28,experiment,09,sitting,switch,congruant,dashed,triangle,yellow,stimuli/dashed-rectangle.png,stimuli/yellow-triangle.png,1,,,,,,,,,,,,,,,,,,,,,,,,,0,0,0,0,2,0,2,0,0,27,27,27,,,,,,,,,,,,,,,,,,,,,,,,,,,,,,,,,,,,,,,,,,,,,,,,,,,,,,,,,,,,,,,,,,,,,,,,481.0411970615387,None,,,,,,,,,,,,,,,,,,,,,,,,,,,,,,,,,,,,,,478.8544919490814,None,479.83895206451416,None,1,1,1.0870211124420166,479.83895206451416,None,,,,,1000,001,09,2021_Nov_02_1532,task-switching-replication,2021.2.3,60.005980133937825,
3,29,experiment,09,sitting,switch,incongruant,solid,triangle,yellow,stimuli/solid-rectangle.png,stimuli/yellow-triangle.png,2,,,,,,,,,,,,,,,,,,,,,,,,,0,0,0,0,2,0,2,0,0,28,28,28,,,,,,,,,,,,,,,,,,,,,,,,,,,,,,,,,,,,,,,,,,,,,,,,,,,,,,,,,,,,,,,,,,,,,,,,483.2187190055847,None,,,,,,,,,,,,,,,,,,,,,,,,,,,,,,,,,,,,,,481.27061796188354,None,482.255117893219,None,2,1,0.847545862197876,482.255117893219,None,,,,,1000,001,09,2021_Nov_02_1532,task-switching-replication,2021.2.3,60.005980133937825,
3,30,experiment,09,sitting,switch,congruant,dashed,square,yellow,stimuli/dashed-rectangle.png,stimuli/yellow-square.png,2,,,,,,,,,,,,,,,,,,,,,,,,,0,0,0,0,2,0,2,0,0,29,29,29,,,,,,,,,,,,,,,,,,,,,,,,,,,,,,,,,,,,,,,,,,,,,,,,,,,,,,,,,,,,,,,,,,,,,,,,485.69327688217163,None,,,,,,,,,,,,,,,,,,,,,,,,,,,,,,,,,,,,,,483.4477870464325,None,484.43357706069946,None,2,1,1.133484125137329,484.43357706069946,None,,,,,1000,001,09,2021_Nov_02_1532,task-switching-replication,2021.2.3,60.005980133937825,
3,31,experiment,09,sitting,switch,congruant,solid,square,yellow,stimuli/solid-rectangle.png,stimuli/yellow-square.png,2,,,,,,,,,,,,,,,,,,,,,,,,,0,0,0,0,2,0,2,0,0,30,30,30,0,0,0,0,,,,,,,,,,,,,,,,,,,,,,,,,,,,,,,,,,,,,,,,,,,,,,,,,,,,,,,,,,,,,,,,,,,,,,487.95924401283264,488.9799509048462,487.99190282821655,None,,,,,,,,,,,,,,,,,,,,,,,,,,,,,,,,,,485.9217948913574,None,486.90467405319214,None,1,0,0.9704468250274658,486.90467405319214,None,,,,,1000,001,09,2021_Nov_02_1532,task-switching-replication,2021.2.3,60.005980133937825,
3,31,experiment,09,sitting,switch,congruant,solid,square,yellow,stimuli/solid-rectangle.png,stimuli/yellow-square.png,2,,,,,,,,,,,,,,,,,,,,,,,,,0,0,0,0,2,0,2,0,0,30,30,30,,,,,,,,,,,,,,,,,,,,,,,,,,,,,,,,,,,,,,,,,,,,,,,,,,,,,,,,,,,,,,,,,,,,,,,,493.01718401908875,None,,,,,,,,,,,,,,,,,,,,,,,,,,,,,,,,,,,,,,,,,,,,,,,,,,,1000,001,09,2021_Nov_02_1532,task-switching-replication,2021.2.3,60.005980133937825,
3,32,experiment,09,sitting,noswitch,congruant,solid,square,yellow,stimuli/solid-rectangle.png,stimuli/yellow-square.png,2,,,,,,,,,,,,,,,,,,,,,,,,,0,0,0,0,2,0,2,0,0,31,31,31,,,,,,,,,,,,,,,,,,,,,,,,,,,,,,,,,,,,,,,,,,,,,,,,,,,,,,,,,,,,,,,,,,,,,,,,494.9857289791107,None,,,,,,,,,,,,,,,,,,,,,,,,,,,,,,,,,,,,,,493.2140910625458,None,494.19873905181885,None,2,1,0.6633150577545166,494.19873905181885,None,,,,,1000,001,09,2021_Nov_02_1532,task-switching-replication,2021.2.3,60.005980133937825,
3,33,experiment,09,sitting,noswitch,incongruant,solid,triangle,blue,stimuli/solid-rectangle.png,stimuli/blue-triangle.png,1,,,,,,,,,,,,,,,,,,,,,,,,,0,0,0,0,2,0,2,0,0,32,32,32,,,,,,,,,,,,,,,,,,,,,,,,,,,,,,,,,,,,,,,,,,,,,,,,,,,,,,,,,,,,,,,,,,,,,,,,496.86675786972046,None,,,,,,,,,,,,,,,,,,,,,,,,,,,,,,,,,,,,,,495.2147099971771,None,496.19877791404724,None,1,1,0.5621509552001953,496.19877791404724,None,,,,,1000,001,09,2021_Nov_02_1532,task-switching-replication,2021.2.3,60.005980133937825,
3,34,experiment,09,sitting,noswitch,incongruant,solid,square,yellow,stimuli/solid-rectangle.png,stimuli/yellow-square.png,2,,,,,,,,,,,,,,,,,,,,,,,,,0,0,0,0,2,0,2,0,0,33,33,33,,,,,,,,,,,,,,,,,,,,,,,,,,,,,,,,,,,,,,,,,,,,,,,,,,,,,,,,,,,,,,,,,,,,,,,,498.62911796569824,None,,,,,,,,,,,,,,,,,,,,,,,,,,,,,,,,,,,,,,497.0952000617981,None,498.07893896102905,None,2,1,0.44585394859313965,498.07893896102905,None,,,,,1000,001,09,2021_Nov_02_1532,task-switching-replication,2021.2.3,60.005980133937825,
3,35,experiment,09,sitting,noswitch,incongruant,solid,square,blue,stimuli/solid-rectangle.png,stimuli/blue-square.png,1,,,,,,,,,,,,,,,,,,,,,,,,,0,0,0,0,2,0,2,0,0,34,34,34,,,,,,,,,,,,,,,,,,,,,,,,,,,,,,,,,,,,,,,,,,,,,,,,,,,,,,,,,,,,,,,,,,,,,,,,500.9246039390564,None,,,,,,,,,,,,,,,,,,,,,,,,,,,,,,,,,,,,,,498.85773491859436,None,499.84247398376465,None,1,1,0.9725179672241211,499.84247398376465,None,,,,,1000,001,09,2021_Nov_02_1532,task-switching-replication,2021.2.3,60.005980133937825,
3,36,experiment,09,sitting,noswitch,incongruant,solid,square,yellow,stimuli/solid-rectangle.png,stimuli/yellow-square.png,2,,,,,,,,,,,,,,,,,,,,,,,,,0,0,0,0,2,0,2,0,0,35,35,35,,,,,,,,,,,,,,,,,,,,,,,,,,,,,,,,,,,,,,,,,,,,,,,,,,,,,,,,,,,,,,,,,,,,,,,,502.9263598918915,None,,,,,,,,,,,,,,,,,,,,,,,,,,,,,,,,,,,,,,501.1534490585327,None,502.13708996772766,None,2,1,0.6659860610961914,502.13708996772766,None,,,,,1000,001,09,2021_Nov_02_1532,task-switching-replication,2021.2.3,60.005980133937825,
3,37,experiment,09,sitting,switch,congruant,dashed,square,blue,stimuli/dashed-rectangle.png,stimuli/blue-square.png,2,,,,,,,,,,,,,,,,,,,,,,,,,0,0,0,0,2,0,2,0,0,36,36,36,,,,,,,,,,,,,,,,,,,,,,,,,,,,,,,,,,,,,,,,,,,,,,,,,,,,,,,,,,,,,,,,,,,,,,,,505.51592683792114,None,,,,,,,,,,,,,,,,,,,,,,,,,,,,,,,,,,,,,,503.15535402297974,None,504.13813400268555,None,2,1,1.260213851928711,504.13813400268555,None,,,,,1000,001,09,2021_Nov_02_1532,task-switching-replication,2021.2.3,60.005980133937825,
3,38,experiment,09,sitting,noswitch,incongruant,dashed,triangle,blue,stimuli/dashed-rectangle.png,stimuli/blue-triangle.png,1,,,,,,,,,,,,,,,,,,,,,,,,,0,0,0,0,2,0,2,0,0,37,37,37,,,,,,,,,,,,,,,,,,,,,,,,,,,,,,,,,,,,,,,,,,,,,,,,,,,,,,,,,,,,,,,,,,,,,,,,507.518905878067,None,,,,,,,,,,,,,,,,,,,,,,,,,,,,,,,,,,,,,,505.74487805366516,None,506.7285668849945,None,1,1,0.6472342014312744,506.7285668849945,None,,,,,1000,001,09,2021_Nov_02_1532,task-switching-replication,2021.2.3,60.005980133937825,
3,39,experiment,09,sitting,noswitch,congruant,dashed,triangle,blue,stimuli/dashed-rectangle.png,stimuli/blue-triangle.png,1,,,,,,,,,,,,,,,,,,,,,,,,,0,0,0,0,2,0,2,0,0,38,38,38,,,,,,,,,,,,,,,,,,,,,,,,,,,,,,,,,,,,,,,,,,,,,,,,,,,,,,,,,,,,,,,,,,,,,,,,509.5177068710327,None,,,,,,,,,,,,,,,,,,,,,,,,,,,,,,,,,,,,,,507.74771785736084,None,508.73156690597534,None,1,1,0.6472039222717285,508.73156690597534,None,,,,,1000,001,09,2021_Nov_02_1532,task-switching-replication,2021.2.3,60.005980133937825,
3,40,experiment,09,sitting,switch,incongruant,solid,square,yellow,stimuli/solid-rectangle.png,stimuli/yellow-square.png,2,,,,,,,,,,,,,,,,,,,,,,,,,0,0,0,0,2,0,2,0,0,39,39,39,0,0,0,0,,,,,,,,,,,,,,,,,,,,,,,,,,,,,,,,,,,,,,,,,,,,,,,,,,,,,,,,,,,,,,,,,,,,,,511.54753494262695,512.5686228275299,511.58047890663147,None,,,,,,,,,,,,,,,,,,,,,,,,,,,,,,,,,,509.7463119029999,None,510.7300560474396,None,1,0,0.7307388782501221,510.7300560474396,None,,,,,1000,001,09,2021_Nov_02_1532,task-switching-replication,2021.2.3,60.005980133937825,
3,40,experiment,09,sitting,switch,incongruant,solid,square,yellow,stimuli/solid-rectangle.png,stimuli/yellow-square.png,2,,,,,,,,,,,,,,,,,,,,,,,,,0,0,0,0,2,0,2,0,0,39,39,39,,,,,,,,,,,,,,,,,,,,,,,,,,,,,,,,,,,,,,,,,,,,,,,,,,,,,,,,,,,,,,,,,,,,,,,,516.6073310375214,None,,,,,,,,,,,,,,,,,,,,,,,,,,,,,,,,,,,,,,,,,,,,,,,,,,,1000,001,09,2021_Nov_02_1532,task-switching-replication,2021.2.3,60.005980133937825,
3,41,experiment,09,sitting,noswitch,incongruant,solid,triangle,blue,stimuli/solid-rectangle.png,stimuli/blue-triangle.png,1,,,,,,,,,,,,,,,,,,,,,,,,,0,0,0,0,2,0,2,0,0,40,40,40,,,,,,,,,,,,,,,,,,,,,,,,,,,,,,,,,,,,,,,,,,,,,,,,,,,,,,,,,,,,,,,,,,,,,,,,518.4580948352814,None,,,,,,,,,,,,,,,,,,,,,,,,,,,,,,,,,,,,,,516.8037538528442,None,517.7874829769135,None,1,1,0.5265841484069824,517.7874829769135,None,,,,,1000,001,09,2021_Nov_02_1532,task-switching-replication,2021.2.3,60.005980133937825,
3,42,experiment,09,sitting,switch,congruant,dashed,triangle,yellow,stimuli/dashed-rectangle.png,stimuli/yellow-triangle.png,1,,,,,,,,,,,,,,,,,,,,,,,,,0,0,0,0,2,0,2,0,0,41,41,41,,,,,0,0,0,0,,,,,,,,,,,,,,,,,,,,,,,,,,,,,,,,,,,,,,,,,,,,,,,,,,,,,,,,,,,,,,,,,,,,,,,,,,,,,,,,,,,,,,,,,,,,,,,,,,,,,,,518.6871559619904,None,519.6715400218964,None,2,0,0.7733538150787354,519.6715400218964,None,520.5514950752258,521.6037130355835,520.5838420391083,None,1000,001,09,2021_Nov_02_1532,task-switching-replication,2021.2.3,60.005980133937825,
3,42,experiment,09,sitting,switch,congruant,dashed,triangle,yellow,stimuli/dashed-rectangle.png,stimuli/yellow-triangle.png,1,,,,,,,,,,,,,,,,,,,,,,,,,0,0,0,0,2,0,2,0,0,41,41,41,,,,,,,,,,,,,,,,,,,,,,,,,,,,,,,,,,,,,,,,,,,,,,,,,,,,,,,,,,,,,,,,,,,,,,,,525.6062610149384,None,,,,,,,,,,,,,,,,,,,,,,,,,,,,,,,,,,,,,,,,,,,,,,,,,,,1000,001,09,2021_Nov_02_1532,task-switching-replication,2021.2.3,60.005980133937825,
3,43,experiment,09,sitting,noswitch,incongruant,dashed,square,blue,stimuli/dashed-rectangle.png,stimuli/blue-square.png,2,,,,,,,,,,,,,,,,,,,,,,,,,0,0,0,0,2,0,2,0,0,42,42,42,,,,,,,,,,,,,,,,,,,,,,,,,,,,,,,,,,,,,,,,,,,,,,,,,,,,,,,,,,,,,,,,,,,,,,,,527.6902439594269,None,,,,,,,,,,,,,,,,,,,,,,,,,,,,,,,,,,,,,,525.8024868965149,None,526.7851889133453,None,2,1,0.7966110706329346,526.7851889133453,None,,,,,1000,001,09,2021_Nov_02_1532,task-switching-replication,2021.2.3,60.005980133937825,
3,44,experiment,09,sitting,noswitch,incongruant,dashed,triangle,blue,stimuli/dashed-rectangle.png,stimuli/blue-triangle.png,1,,,,,,,,,,,,,,,,,,,,,,,,,0,0,0,0,2,0,2,0,0,43,43,43,,,,,,,,,,,,,,,,,,,,,,,,,,,,,,,,,,,,,,,,,,,,,,,,,,,,,,,,,,,,,,,,,,,,,,,,529.3950769901276,None,,,,,,,,,,,,,,,,,,,,,,,,,,,,,,,,,,,,,,527.919352054596,None,528.9039969444275,None,1,1,0.3909461498260498,528.9039969444275,None,,,,,1000,001,09,2021_Nov_02_1532,task-switching-replication,2021.2.3,60.005980133937825,
3,45,experiment,09,sitting,noswitch,congruant,dashed,triangle,blue,stimuli/dashed-rectangle.png,stimuli/blue-triangle.png,1,,,,,,,,,,,,,,,,,,,,,,,,,0,0,0,0,2,0,2,0,0,44,44,44,,,,,,,,,,,,,,,,,,,,,,,,,,,,,,,,,,,,,,,,,,,,,,,,,,,,,,,,,,,,,,,,,,,,,,,,531.4541020393372,None,,,,,,,,,,,,,,,,,,,,,,,,,,,,,,,,,,,,,,529.6239018440247,None,530.6087729930878,None,1,1,0.706017017364502,530.6087729930878,None,,,,,1000,001,09,2021_Nov_02_1532,task-switching-replication,2021.2.3,60.005980133937825,
