blockNum,trialNum,trialType,condition,posture,switchTrialType,congruantTrialType,cueType,shapeType,shapeColor,cueFileName,stimuliFileName,correctAnswer,untimedTrials.thisRepN,untimedTrials.thisTrialN,untimedTrials.thisN,untimedTrials.thisIndex,selectSolid1.thisRepN,selectSolid1.thisTrialN,selectSolid1.thisN,selectSolid1.thisIndex,selectDashed1.thisRepN,selectDashed1.thisTrialN,selectDashed1.thisN,selectDashed1.thisIndex,timedTrials.thisRepN,timedTrials.thisTrialN,timedTrials.thisN,timedTrials.thisIndex,selectSolid2.thisRepN,selectSolid2.thisTrialN,selectSolid2.thisN,selectSolid2.thisIndex,selectDashed2.thisRepN,selectDashed2.thisTrialN,selectDashed2.thisN,selectDashed2.thisIndex,postures.thisRepN,postures.thisTrialN,postures.thisN,postures.thisIndex,blocks.thisRepN,blocks.thisTrialN,blocks.thisN,blocks.thisIndex,trials.thisRepN,trials.thisTrialN,trials.thisN,trials.thisIndex,selectSolid.thisRepN,selectSolid.thisTrialN,selectSolid.thisN,selectSolid.thisIndex,selectDashed.thisRepN,selectDashed.thisTrialN,selectDashed.thisN,selectDashed.thisIndex,text_3.started,text_3.stopped,key_resp_2.keys,key_resp_2.rt,key_resp_2.started,key_resp_2.stopped,image_4.started,image_4.stopped,key_resp_4.keys,key_resp_4.rt,key_resp_4.started,key_resp_4.stopped,image_5.started,image_5.stopped,key_resp_5.keys,key_resp_5.rt,key_resp_5.started,key_resp_5.stopped,image_6.started,image_6.stopped,key_resp_6.keys,key_resp_6.rt,key_resp_6.started,key_resp_6.stopped,image_7.started,image_7.stopped,key_resp_7.keys,key_resp_7.rt,key_resp_7.started,key_resp_7.stopped,image_8.started,image_8.stopped,key_resp_8.keys,key_resp_8.rt,key_resp_8.started,key_resp_8.stopped,image_9.started,image_9.stopped,key_resp_9.keys,key_resp_9.rt,key_resp_9.started,key_resp_9.stopped,image_10.started,image_10.stopped,key_resp_10.keys,key_resp_10.rt,key_resp_10.started,key_resp_10.stopped,image_11.started,image_11.stopped,key_resp_11.keys,key_resp_11.rt,key_resp_11.started,key_resp_11.stopped,cue_untimed_image.started,cue_untimed_image.stopped,stimuli_untimed_image.started,stimuli_untimed_image.stopped,untimed_resp.keys,untimed_resp.corr,untimed_resp.rt,untimed_resp.started,untimed_resp.stopped,text_2.started,text_2.stopped,sound_1.started,sound_1.stopped,image_2.started,image_2.stopped,sound_2.started,sound_2.stopped,image_3.started,image_3.stopped,image_12.started,image_12.stopped,key_resp_12.keys,key_resp_12.rt,key_resp_12.started,key_resp_12.stopped,image_13.started,image_13.stopped,key_resp_13.keys,key_resp_13.rt,key_resp_13.started,key_resp_13.stopped,cue_timed_image.started,cue_timed_image.stopped,stimuli_timed_image.started,stimuli_timed_image.stopped,timed_resp.keys,timed_resp.corr,timed_resp.rt,timed_resp.started,timed_resp.stopped,image.started,image.stopped,key_response.keys,key_response.rt,key_response.started,key_response.stopped,text.started,text.stopped,key_resp.keys,key_resp.rt,key_resp.started,key_resp.stopped,cue_image.started,cue_image.stopped,stimuli_image.started,stimuli_image.stopped,exp_resp.keys,exp_resp.corr,exp_resp.rt,exp_resp.started,exp_resp.stopped,text_4.started,text_4.stopped,key_resp_3.keys,key_resp_3.rt,key_resp_3.started,key_resp_3.stopped,participant,session,condition,date,expName,psychopyVersion,frameRate,
,,,01,,,,,,,,,,,,,,,,,,,,,,,,,,,,,,,,,,,,,,,,,,,,,,,,,,,,,,4.961054086685181,None,1,80.17469000816345,4.961054086685181,None,,,,,,,,,,,,,,,,,,,,,,,,,,,,,,,,,,,,,,,,,,,,,,,,,,,,,,,,,,,,,,,,,,,,,,,,,,,,,,,,,,,,,,,,,,,,,,,,,,,,,,,,,,,,,,,,,,,,1000,001,01,2021_Nov_02_1101,task-switching-replication,2021.2.3,59.82794649823624,
,,,01,,,,,,,,,,,,,,,,,,,,,,,,,,,,,,,,,,,,,,,,,,,,,,,,,,,,,,,,,,,,85.21861696243286,None,1,19.15458583831787,85.21861696243286,None,,,,,,,,,,,,,,,,,,,,,,,,,,,,,,,,,,,,,,,,,,,,,,,,,,,,,,,,,,,,,,,,,,,,,,,,,,,,,,,,,,,,,,,,,,,,,,,,,,,,,,,,,,,,,,1000,001,01,2021_Nov_02_1101,task-switching-replication,2021.2.3,59.82794649823624,
,,,01,,,,,,,,,,,,,,,,,,,,,,,,,,,,,,,,,,,,,,,,,,,,,,,,,,,,,,,,,,,,,,,,,,104.47178506851196,None,1,7.1994569301605225,104.47178506851196,None,,,,,,,,,,,,,,,,,,,,,,,,,,,,,,,,,,,,,,,,,,,,,,,,,,,,,,,,,,,,,,,,,,,,,,,,,,,,,,,,,,,,,,,,,,,,,,,,,,,,,,,,1000,001,01,2021_Nov_02_1101,task-switching-replication,2021.2.3,59.82794649823624,
,,,01,,,,,,,,,,,,,,,,,,,,,,,,,,,,,,,,,,,,,,,,,,,,,,,,,,,,,,,,,,,,,,,,,,,,,,,,111.75593590736389,None,2,5.421474933624268,111.75593590736389,None,,,,,,,,,,,,,,,,,,,,,,,,,,,,,,,,,,,,,,,,,,,,,,,,,,,,,,,,,,,,,,,,,,,,,,,,,,,,,,,,,,,,,,,,,,,,,,,,,,1000,001,01,2021_Nov_02_1101,task-switching-replication,2021.2.3,59.82794649823624,
,,,01,,,,,,,,,,,,,,,,,,,,,,,,,,,,,,,,,,,,,,,,,,,,,,,,,,,,,,,,,,,,,,,,,,,,,,,,,,,,,,117.28030705451965,None,1,5.465472936630249,117.28030705451965,None,,,,,,,,,,,,,,,,,,,,,,,,,,,,,,,,,,,,,,,,,,,,,,,,,,,,,,,,,,,,,,,,,,,,,,,,,,,,,,,,,,,,,,,,,,,,1000,001,01,2021_Nov_02_1101,task-switching-replication,2021.2.3,59.82794649823624,
,,,01,,,,,,,,,,,,,,,,,,,,,,,,,,,,,,,,,,,,,,,,,,,,,,,,,,,,,,,,,,,,,,,,,,,,,,,,,,,,,,,,,,,,122.86742210388184,None,1,4.192584991455078,122.86742210388184,None,,,,,,,,,,,,,,,,,,,,,,,,,,,,,,,,,,,,,,,,,,,,,,,,,,,,,,,,,,,,,,,,,,,,,,,,,,,,,,,,,,,,,,1000,001,01,2021_Nov_02_1101,task-switching-replication,2021.2.3,59.82794649823624,
,,,01,,,,,,,,,,,,,,,,,,,,,,,,,,,,,,,,,,,,,,,,,,,,,,,,,,,,,,,,,,,,,,,,,,,,,,,,,,,,,,,,,,,,,,,,,,127.17274308204651,None,2,0.4909980297088623,127.17274308204651,None,,,,,,,,,,,,,,,,,,,,,,,,,,,,,,,,,,,,,,,,,,,,,,,,,,,,,,,,,,,,,,,,,,,,,,,,,,,,,,,,1000,001,01,2021_Nov_02_1101,task-switching-replication,2021.2.3,59.82794649823624,
,,,01,,,,,,,,,,,,,,,,,,,,,,,,,,,,,,,,,,,,,,,,,,,,,,,,,,,,,,,,,,,,,,,,,,,,,,,,,,,,,,,,,,,,,,,,,,,,,,,,127.77480292320251,None,1,1.050550937652588,127.77480292320251,None,,,,,,,,,,,,,,,,,,,,,,,,,,,,,,,,,,,,,,,,,,,,,,,,,,,,,,,,,,,,,,,,,,,,,,,,,,1000,001,01,2021_Nov_02_1101,task-switching-replication,2021.2.3,59.82794649823624,
,,,01,,,,,,,,,,,,,,,,,,,,,,,,,,,,,,,,,,,,,,,,,,,,,,,,,,,,,,,,,,,,,,,,,,,,,,,,,,,,,,,,,,,,,,,,,,,,,,,,,,,,,,128.92114400863647,None,1,4.2857890129089355,128.92114400863647,None,,,,,,,,,,,,,,,,,,,,,,,,,,,,,,,,,,,,,,,,,,,,,,,,,,,,,,,,,,,,,,,,,,,,1000,001,01,2021_Nov_02_1101,task-switching-replication,2021.2.3,59.82794649823624,
1,1,untimed,01,standing,buffer,buffer,dashed,square,blue,stimuli/dashed-rectangle.png,stimuli/blue-square.png,2,0,0,0,0,,,,,,,,,,,,,,,,,,,,,,,,,,,,,,,,,,,,,,,,,,,,,,,,,,,,,,,,,,,,,,,,,,,,,,,,,,,,,,,,,,,,,,,,,,,,,,,133.3225200176239,None,134.32399702072144,None,2,1,2.0337750911712646,134.32399702072144,None,136.49726700782776,None,,,,,,,,,,,,,,,,,,,,,,,,,,,,,,,,,,,,,,,,,,,,,,,,,,,,,,,,,1000,001,01,2021_Nov_02_1101,task-switching-replication,2021.2.3,59.82794649823624,
1,2,untimed,01,standing,switch,congruant,solid,square,yellow,stimuli/solid-rectangle.png,stimuli/yellow-square.png,2,0,1,1,1,0,0,0,0,,,,,,,,,,,,,,,,,,,,,,,,,,,,,,,,,,,,,,,,,,,,,,,,,,,,,,,,,,,,,,,,,,,,,,,,,,,,,,,,,,,,,,,,,,,136.72789692878723,None,137.72780108451843,None,1,0,2.7146658897399902,137.72780108451843,None,,,140.525435090065,141.57676005363464,140.55898690223694,None,,,,,,,,,,,,,,,,,,,,,,,,,,,,,,,,,,,,,,,,,,,,,,,,,,,,,1000,001,01,2021_Nov_02_1101,task-switching-replication,2021.2.3,59.82794649823624,
1,2,untimed,01,standing,switch,congruant,solid,square,yellow,stimuli/solid-rectangle.png,stimuli/yellow-square.png,2,0,1,1,1,,,,,,,,,,,,,,,,,,,,,,,,,,,,,,,,,,,,,,,,,,,,,,,,,,,,,,,,,,,,,,,,,,,,,,,,,,,,,,,,,,,,,,,,,,,,,,,,,,,,,,,,145.58296489715576,None,,,,,,,,,,,,,,,,,,,,,,,,,,,,,,,,,,,,,,,,,,,,,,,,,,,,,,,,,1000,001,01,2021_Nov_02_1101,task-switching-replication,2021.2.3,59.82794649823624,
1,3,untimed,01,standing,switch,congruant,dashed,square,yellow,stimuli/dashed-rectangle.png,stimuli/yellow-square.png,2,0,2,2,2,,,,,0,0,0,0,,,,,,,,,,,,,,,,,,,,,,,,,,,,,,,,,,,,,,,,,,,,,,,,,,,,,,,,,,,,,,,,,,,,,,,,,,,,,,,,,,,,,,,145.7809751033783,None,146.78034901618958,None,1,0,2.825407028198242,146.78034901618958,None,,,,,,,149.70739901065826,150.75983095169067,149.7400360107422,None,,,,,,,,,,,,,,,,,,,,,,,,,,,,,,,,,,,,,,,,,,,,,,,,,1000,001,01,2021_Nov_02_1101,task-switching-replication,2021.2.3,59.82794649823624,
1,3,untimed,01,standing,switch,congruant,dashed,square,yellow,stimuli/dashed-rectangle.png,stimuli/yellow-square.png,2,0,2,2,2,,,,,,,,,,,,,,,,,,,,,,,,,,,,,,,,,,,,,,,,,,,,,,,,,,,,,,,,,,,,,,,,,,,,,,,,,,,,,,,,,,,,,,,,,,,,,,,,,,,,,,,,154.76485395431519,None,,,,,,,,,,,,,,,,,,,,,,,,,,,,,,,,,,,,,,,,,,,,,,,,,,,,,,,,,1000,001,01,2021_Nov_02_1101,task-switching-replication,2021.2.3,59.82794649823624,
1,4,untimed,01,standing,switch,incongruant,solid,square,blue,stimuli/solid-rectangle.png,stimuli/blue-square.png,1,0,3,3,3,0,0,0,0,,,,,,,,,,,,,,,,,,,,,,,,,,,,,,,,,,,,,,,,,,,,,,,,,,,,,,,,,,,,,,,,,,,,,,,,,,,,,,,,,,,,,,,,,,,154.96197605133057,None,155.96286296844482,None,2,0,1.9576630592346191,155.96286296844482,None,,,158.046816945076,159.09787797927856,158.07895398139954,None,,,,,,,,,,,,,,,,,,,,,,,,,,,,,,,,,,,,,,,,,,,,,,,,,,,,,1000,001,01,2021_Nov_02_1101,task-switching-replication,2021.2.3,59.82794649823624,
1,4,untimed,01,standing,switch,incongruant,solid,square,blue,stimuli/solid-rectangle.png,stimuli/blue-square.png,1,0,3,3,3,,,,,,,,,,,,,,,,,,,,,,,,,,,,,,,,,,,,,,,,,,,,,,,,,,,,,,,,,,,,,,,,,,,,,,,,,,,,,,,,,,,,,,,,,,,,,,,,,,,,,,,,163.1020929813385,None,,,,,,,,,,,,,,,,,,,,,,,,,,,,,,,,,,,,,,,,,,,,,,,,,,,,,,,,,1000,001,01,2021_Nov_02_1101,task-switching-replication,2021.2.3,59.82794649823624,
1,5,untimed,01,standing,noswitch,congruant,solid,square,blue,stimuli/solid-rectangle.png,stimuli/blue-square.png,1,0,4,4,4,,,,,,,,,,,,,,,,,,,,,,,,,,,,,,,,,,,,,,,,,,,,,,,,,,,,,,,,,,,,,,,,,,,,,,,,,,,,,,,,,,,,,,,,,,,,,,,163.29933094978333,None,164.30067491531372,None,1,1,0.6148810386657715,164.30067491531372,None,165.04021000862122,None,,,,,,,,,,,,,,,,,,,,,,,,,,,,,,,,,,,,,,,,,,,,,,,,,,,,,,,,,1000,001,01,2021_Nov_02_1101,task-switching-replication,2021.2.3,59.82794649823624,
1,6,untimed,01,standing,switch,congruant,dashed,triangle,yellow,stimuli/dashed-rectangle.png,stimuli/yellow-triangle.png,1,0,5,5,5,,,,,,,,,,,,,,,,,,,,,,,,,,,,,,,,,,,,,,,,,,,,,,,,,,,,,,,,,,,,,,,,,,,,,,,,,,,,,,,,,,,,,,,,,,,,,,,165.26935601234436,None,166.26874804496765,None,1,1,1.0046498775482178,166.26874804496765,None,167.42218399047852,None,,,,,,,,,,,,,,,,,,,,,,,,,,,,,,,,,,,,,,,,,,,,,,,,,,,,,,,,,1000,001,01,2021_Nov_02_1101,task-switching-replication,2021.2.3,59.82794649823624,
1,7,untimed,01,standing,noswitch,incongruant,dashed,square,yellow,stimuli/dashed-rectangle.png,stimuli/yellow-square.png,2,0,6,6,6,,,,,,,,,,,,,,,,,,,,,,,,,,,,,,,,,,,,,,,,,,,,,,,,,,,,,,,,,,,,,,,,,,,,,,,,,,,,,,,,,,,,,,,,,,,,,,,167.65120100975037,None,168.65174794197083,None,2,1,1.165410041809082,168.65174794197083,None,169.92412900924683,None,,,,,,,,,,,,,,,,,,,,,,,,,,,,,,,,,,,,,,,,,,,,,,,,,,,,,,,,,1000,001,01,2021_Nov_02_1101,task-switching-replication,2021.2.3,59.82794649823624,
1,8,untimed,01,standing,noswitch,incongruant,dashed,triangle,yellow,stimuli/dashed-rectangle.png,stimuli/yellow-triangle.png,1,0,7,7,7,,,,,,,,,,,,,,,,,,,,,,,,,,,,,,,,,,,,,,,,,,,,,,,,,,,,,,,,,,,,,,,,,,,,,,,,,,,,,,,,,,,,,,,,,,,,,,,170.15321803092957,None,171.15357899665833,None,1,1,0.7473640441894531,171.15357899665833,None,172.00759196281433,None,,,,,,,,,,,,,,,,,,,,,,,,,,,,,,,,,,,,,,,,,,,,,,,,,,,,,,,,,1000,001,01,2021_Nov_02_1101,task-switching-replication,2021.2.3,59.82794649823624,
1,9,untimed,01,standing,noswitch,congruant,dashed,triangle,blue,stimuli/dashed-rectangle.png,stimuli/blue-triangle.png,1,0,8,8,8,,,,,,,,,,,,,,,,,,,,,,,,,,,,,,,,,,,,,,,,,,,,,,,,,,,,,,,,,,,,,,,,,,,,,,,,,,,,,,,,,,,,,,,,,,,,,,,172.23701691627502,None,173.23704409599304,None,1,1,0.7102091312408447,173.23704409599304,None,174.0914990901947,None,,,,,,,,,,,,,,,,,,,,,,,,,,,,,,,,,,,,,,,,,,,,,,,,,,,,,,,,,1000,001,01,2021_Nov_02_1101,task-switching-replication,2021.2.3,59.82794649823624,
1,10,untimed,01,standing,switch,incongruant,solid,square,yellow,stimuli/solid-rectangle.png,stimuli/yellow-square.png,2,0,9,9,9,0,0,0,0,,,,,,,,,,,,,,,,,,,,,,,,,,,,,,,,,,,,,,,,,,,,,,,,,,,,,,,,,,,,,,,,,,,,,,,,,,,,,,,,,,,,,,,,,,,174.3206889629364,None,175.32024002075195,None,1,0,1.3661069869995117,175.32024002075195,None,,,176.80302298069,177.85402393341064,176.83606910705566,None,,,,,,,,,,,,,,,,,,,,,,,,,,,,,,,,,,,,,,,,,,,,,,,,,,,,,1000,001,01,2021_Nov_02_1101,task-switching-replication,2021.2.3,59.82794649823624,
1,10,untimed,01,standing,switch,incongruant,solid,square,yellow,stimuli/solid-rectangle.png,stimuli/yellow-square.png,2,0,9,9,9,,,,,,,,,,,,,,,,,,,,,,,,,,,,,,,,,,,,,,,,,,,,,,,,,,,,,,,,,,,,,,,,,,,,,,,,,,,,,,,,,,,,,,,,,,,,,,,,,,,,,,,,181.85783290863037,None,,,,,,,,,,,,,,,,,,,,,,,,,,,,,,,,,,,,,,,,,,,,,,,,,,,,,,,,,1000,001,01,2021_Nov_02_1101,task-switching-replication,2021.2.3,59.82794649823624,
1,11,untimed,01,standing,noswitch,incongruant,solid,triangle,blue,stimuli/solid-rectangle.png,stimuli/blue-triangle.png,1,0,10,10,10,,,,,,,,,,,,,,,,,,,,,,,,,,,,,,,,,,,,,,,,,,,,,,,,,,,,,,,,,,,,,,,,,,,,,,,,,,,,,,,,,,,,,,,,,,,,,,,182.05497097969055,None,183.05569410324097,None,1,1,0.7155158519744873,183.05569410324097,None,183.91023898124695,None,,,,,,,,,,,,,,,,,,,,,,,,,,,,,,,,,,,,,,,,,,,,,,,,,,,,,,,,,1000,001,01,2021_Nov_02_1101,task-switching-replication,2021.2.3,59.82794649823624,
1,12,untimed,01,standing,noswitch,incongruant,solid,triangle,yellow,stimuli/solid-rectangle.png,stimuli/yellow-triangle.png,2,0,11,11,11,0,0,0,0,,,,,,,,,,,,,,,,,,,,,,,,,,,,,,,,,,,,,,,,,,,,,,,,,,,,,,,,,,,,,,,,,,,,,,,,,,,,,,,,,,,,,,,,,,,184.13942003250122,None,185.14032101631165,None,1,0,1.7718849182128906,185.14032101631165,None,,,186.9832020998001,188.00117993354797,187.016606092453,None,,,,,,,,,,,,,,,,,,,,,,,,,,,,,,,,,,,,,,,,,,,,,,,,,,,,,1000,001,01,2021_Nov_02_1101,task-switching-replication,2021.2.3,59.82794649823624,
1,12,untimed,01,standing,noswitch,incongruant,solid,triangle,yellow,stimuli/solid-rectangle.png,stimuli/yellow-triangle.png,2,0,11,11,11,,,,,,,,,,,,,,,,,,,,,,,,,,,,,,,,,,,,,,,,,,,,,,,,,,,,,,,,,,,,,,,,,,,,,,,,,,,,,,,,,,,,,,,,,,,,,,,,,,,,,,,,192.04027104377747,None,,,,,,,,,,,,,,,,,,,,,,,,,,,,,,,,,,,,,,,,,,,,,,,,,,,,,,,,,1000,001,01,2021_Nov_02_1101,task-switching-replication,2021.2.3,59.82794649823624,
,,,01,,,,,,,,,,,,,,,,,,,,,,,,,,,,,,,,,,,,,,,,,,,,,,,,,,,,,,,,,,,,,,,,,,,,,,,,,,,,,,,,,,,,,,,,,,,,,,,,,,,,,,,,,,,,,,,,,,,,,,,,,,,,,,,192.2372341156006,None,1,2.327928066253662,192.2372341156006,None,,,,,,,,,,,,,,,,,,,,,,,,,,,,,,,,,,,,,,,,,,,1000,001,01,2021_Nov_02_1101,task-switching-replication,2021.2.3,59.82794649823624,
,,,01,,,,,,,,,,,,,,,,,,,,,,,,,,,,,,,,,,,,,,,,,,,,,,,,,,,,,,,,,,,,,,,,,,,,,,,,,,,,,,,,,,,,,,,,,,,,,,,,,,,,,,,,,,,,,,,,,,,,,,,,,,,,,,,,,,,,,194.65761804580688,None,2,22.039528131484985,194.65761804580688,None,,,,,,,,,,,,,,,,,,,,,,,,,,,,,,,,,,,,,1000,001,01,2021_Nov_02_1101,task-switching-replication,2021.2.3,59.82794649823624,
1,1,timed,01,standing,buffer,buffer,solid,triangle,blue,stimuli/solid-rectangle.png,stimuli/blue-triangle.png,1,,,,,,,,,,,,,0,0,0,0,,,,,,,,,,,,,,,,,,,,,,,,,,,,,,,,,,,,,,,,,,,,,,,,,,,,,,,,,,,,,,,,,,,,,,,,,,,,,,,,,,,,,,,,,,,,218.4036409854889,None,,,,,,,,,,,,,,,,,,,,,216.80655598640442,None,217.79317593574524,None,1,1,0.5048530101776123,217.79317593574524,None,,,,,,,,,,,,,,,,,,,,,,,,,,,,1000,001,01,2021_Nov_02_1101,task-switching-replication,2021.2.3,59.82794649823624,
1,2,timed,01,standing,noswitch,congruant,solid,triangle,blue,stimuli/solid-rectangle.png,stimuli/blue-triangle.png,1,,,,,,,,,,,,,0,1,1,1,,,,,,,,,,,,,,,,,,,,,,,,,,,,,,,,,,,,,,,,,,,,,,,,,,,,,,,,,,,,,,,,,,,,,,,,,,,,,,,,,,,,,,,,,,,,220.28714799880981,None,,,,,,,,,,,,,,,,,,,,,218.63258504867554,None,219.6180911064148,None,1,1,0.555804967880249,219.6180911064148,None,,,,,,,,,,,,,,,,,,,,,,,,,,,,1000,001,01,2021_Nov_02_1101,task-switching-replication,2021.2.3,59.82794649823624,
1,3,timed,01,standing,switch,congruant,dashed,triangle,blue,stimuli/dashed-rectangle.png,stimuli/blue-triangle.png,1,,,,,,,,,,,,,0,2,2,2,,,,,,,,,,,,,,,,,,,,,,,,,,,,,,,,,,,,,,,,,,,,,,,,,,,,,,,,,,,,,,,,,,,,,,,,,,,,,,,,,,,,,,,,,,,,222.28816103935242,None,,,,,,,,,,,,,,,,,,,,,220.51642394065857,None,221.50126791000366,None,1,1,0.6543238162994385,221.50126791000366,None,,,,,,,,,,,,,,,,,,,,,,,,,,,,1000,001,01,2021_Nov_02_1101,task-switching-replication,2021.2.3,59.82794649823624,
1,4,timed,01,standing,noswitch,congruant,dashed,triangle,yellow,stimuli/dashed-rectangle.png,stimuli/yellow-triangle.png,1,,,,,,,,,,,,,0,3,3,3,,,,,0,0,0,0,,,,,,,,,,,,,,,,,,,,,,,,,,,,,,,,,,,,,,,,,,,,,,,,,,,,,,,,,,,,,,,,,,,,,,,,,,,,,,,,,,,,,,,,,,224.79068911075592,225.80933904647827,224.82408690452576,None,,,,,,,,,,,,,222.51676297187805,None,223.50131797790527,None,2,0,1.2105200290679932,223.50131797790527,None,,,,,,,,,,,,,,,,,,,,,,,,,,,,1000,001,01,2021_Nov_02_1101,task-switching-replication,2021.2.3,59.82794649823624,
1,4,timed,01,standing,noswitch,congruant,dashed,triangle,yellow,stimuli/dashed-rectangle.png,stimuli/yellow-triangle.png,1,,,,,,,,,,,,,0,3,3,3,,,,,,,,,,,,,,,,,,,,,,,,,,,,,,,,,,,,,,,,,,,,,,,,,,,,,,,,,,,,,,,,,,,,,,,,,,,,,,,,,,,,,,,,,,,,229.85175704956055,None,,,,,,,,,,,,,,,,,,,,,,,,,,,,,,,,,,,,,,,,,,,,,,,,,,,,,,,,,1000,001,01,2021_Nov_02_1101,task-switching-replication,2021.2.3,59.82794649823624,
1,5,timed,01,standing,switch,incongruant,solid,triangle,yellow,stimuli/solid-rectangle.png,stimuli/yellow-triangle.png,2,,,,,,,,,,,,,0,4,4,4,,,,,,,,,,,,,,,,,,,,,,,,,,,,,,,,,,,,,,,,,,,,,,,,,,,,,,,,,,,,,,,,,,,,,,,,,,,,,,,,,,,,,,,,,,,,231.7597279548645,None,,,,,,,,,,,,,,,,,,,,,230.04790902137756,None,231.03199195861816,None,2,1,0.59871506690979,231.03199195861816,None,,,,,,,,,,,,,,,,,,,,,,,,,,,,1000,001,01,2021_Nov_02_1101,task-switching-replication,2021.2.3,59.82794649823624,
1,6,timed,01,standing,switch,incongruant,dashed,triangle,blue,stimuli/dashed-rectangle.png,stimuli/blue-triangle.png,1,,,,,,,,,,,,,0,5,5,5,,,,,,,,,,,,,,,,,,,,,,,,,,,,,,,,,,,,,,,,,,,,,,,,,,,,,,,,,,,,,,,,,,,,,,,,,,,,,,,,,,,,,,,,,,,,233.82129907608032,None,,,,,,,,,,,,,,,,,,,,,231.98877811431885,None,232.97225499153137,None,1,1,0.6905591487884521,232.97225499153137,None,,,,,,,,,,,,,,,,,,,,,,,,,,,,1000,001,01,2021_Nov_02_1101,task-switching-replication,2021.2.3,59.82794649823624,
1,7,timed,01,standing,noswitch,incongruant,dashed,square,yellow,stimuli/dashed-rectangle.png,stimuli/yellow-square.png,2,,,,,,,,,,,,,0,6,6,6,,,,,,,,,,,,,,,,,,,,,,,,,,,,,,,,,,,,,,,,,,,,,,,,,,,,,,,,,,,,,,,,,,,,,,,,,,,,,,,,,,,,,,,,,,,,235.76905393600464,None,,,,,,,,,,,,,,,,,,,,,234.05153608322144,None,235.0367259979248,None,2,1,0.5810558795928955,235.0367259979248,None,,,,,,,,,,,,,,,,,,,,,,,,,,,,1000,001,01,2021_Nov_02_1101,task-switching-replication,2021.2.3,59.82794649823624,
1,8,timed,01,standing,noswitch,congruant,dashed,square,yellow,stimuli/dashed-rectangle.png,stimuli/yellow-square.png,2,,,,,,,,,,,,,0,7,7,7,,,,,0,0,0,0,,,,,,,,,,,,,,,,,,,,,,,,,,,,,,,,,,,,,,,,,,,,,,,,,,,,,,,,,,,,,,,,,,,,,,,,,,,,,,,,,,,,,,,,,,238.519372177124,239.571839094162,238.55121898651123,None,,,,,,,,,,,,,235.99848008155823,None,236.98446393013,None,None,0,,236.98446393013,None,,,,,,,,,,,,,,,,,,,,,,,,,,,,1000,001,01,2021_Nov_02_1101,task-switching-replication,2021.2.3,59.82794649823624,
1,8,timed,01,standing,noswitch,congruant,dashed,square,yellow,stimuli/dashed-rectangle.png,stimuli/yellow-square.png,2,,,,,,,,,,,,,0,7,7,7,,,,,,,,,,,,,,,,,,,,,,,,,,,,,,,,,,,,,,,,,,,,,,,,,,,,,,,,,,,,,,,,,,,,,,,,,,,,,,,,,,,,,,,,,,,,243.57663798332214,None,,,,,,,,,,,,,,,,,,,,,,,,,,,,,,,,,,,,,,,,,,,,,,,,,,,,,,,,,1000,001,01,2021_Nov_02_1101,task-switching-replication,2021.2.3,59.82794649823624,
1,9,timed,01,standing,noswitch,congruant,dashed,square,blue,stimuli/dashed-rectangle.png,stimuli/blue-square.png,2,,,,,,,,,,,,,0,8,8,8,,,,,,,,,,,,,,,,,,,,,,,,,,,,,,,,,,,,,,,,,,,,,,,,,,,,,,,,,,,,,,,,,,,,,,,,,,,,,,,,,,,,,,,,,,,,245.48407292366028,None,,,,,,,,,,,,,,,,,,,,,243.77325201034546,None,244.75699710845947,None,2,1,0.6289281845092773,244.75699710845947,None,,,,,,,,,,,,,,,,,,,,,,,,,,,,1000,001,01,2021_Nov_02_1101,task-switching-replication,2021.2.3,59.82794649823624,
1,10,timed,01,standing,noswitch,incongruant,dashed,triangle,yellow,stimuli/dashed-rectangle.png,stimuli/yellow-triangle.png,1,,,,,,,,,,,,,0,9,9,9,,,,,,,,,,,,,,,,,,,,,,,,,,,,,,,,,,,,,,,,,,,,,,,,,,,,,,,,,,,,,,,,,,,,,,,,,,,,,,,,,,,,,,,,,,,,247.54231595993042,None,,,,,,,,,,,,,,,,,,,,,245.71283602714539,None,246.69692206382751,None,1,1,0.6972060203552246,246.69692206382751,None,,,,,,,,,,,,,,,,,,,,,,,,,,,,1000,001,01,2021_Nov_02_1101,task-switching-replication,2021.2.3,59.82794649823624,
1,11,timed,01,standing,switch,incongruant,solid,triangle,yellow,stimuli/solid-rectangle.png,stimuli/yellow-triangle.png,2,,,,,,,,,,,,,0,10,10,10,0,0,0,0,,,,,,,,,,,,,,,,,,,,,,,,,,,,,,,,,,,,,,,,,,,,,,,,,,,,,,,,,,,,,,,,,,,,,,,,,,,,,,,,,,,,,,,,,,249.2765370607376,250.29435896873474,249.30987191200256,None,,,,,,,,,,,,,,,,,247.7716679573059,None,248.7546660900116,None,1,0,0.44772791862487793,248.7546660900116,None,,,,,,,,,,,,,,,,,,,,,,,,,,,,1000,001,01,2021_Nov_02_1101,task-switching-replication,2021.2.3,59.82794649823624,
1,11,timed,01,standing,switch,incongruant,solid,triangle,yellow,stimuli/solid-rectangle.png,stimuli/yellow-triangle.png,2,,,,,,,,,,,,,0,10,10,10,,,,,,,,,,,,,,,,,,,,,,,,,,,,,,,,,,,,,,,,,,,,,,,,,,,,,,,,,,,,,,,,,,,,,,,,,,,,,,,,,,,,,,,,,,,,254.3319809436798,None,,,,,,,,,,,,,,,,,,,,,,,,,,,,,,,,,,,,,,,,,,,,,,,,,,,,,,,,,1000,001,01,2021_Nov_02_1101,task-switching-replication,2021.2.3,59.82794649823624,
1,12,timed,01,standing,switch,congruant,dashed,square,blue,stimuli/dashed-rectangle.png,stimuli/blue-square.png,2,,,,,,,,,,,,,0,11,11,11,,,,,,,,,,,,,,,,,,,,,,,,,,,,,,,,,,,,,,,,,,,,,,,,,,,,,,,,,,,,,,,,,,,,,,,,,,,,,,,,,,,,,,,,,,,,256.29692792892456,None,,,,,,,,,,,,,,,,,,,,,254.5283501148224,None,255.51142001152039,None,2,1,0.6857099533081055,255.51142001152039,None,,,,,,,,,,,,,,,,,,,,,,,,,,,,1000,001,01,2021_Nov_02_1101,task-switching-replication,2021.2.3,59.82794649823624,
1,13,timed,01,standing,switch,congruant,solid,square,yellow,stimuli/solid-rectangle.png,stimuli/yellow-square.png,2,,,,,,,,,,,,,0,12,12,12,,,,,,,,,,,,,,,,,,,,,,,,,,,,,,,,,,,,,,,,,,,,,,,,,,,,,,,,,,,,,,,,,,,,,,,,,,,,,,,,,,,,,,,,,,,,258.23809599876404,None,,,,,,,,,,,,,,,,,,,,,256.52572107315063,None,257.510293006897,None,2,1,0.579077959060669,257.510293006897,None,,,,,,,,,,,,,,,,,,,,,,,,,,,,1000,001,01,2021_Nov_02_1101,task-switching-replication,2021.2.3,59.82794649823624,
1,14,timed,01,standing,noswitch,incongruant,solid,square,blue,stimuli/solid-rectangle.png,stimuli/blue-square.png,1,,,,,,,,,,,,,0,13,13,13,0,0,0,0,,,,,,,,,,,,,,,,,,,,,,,,,,,,,,,,,,,,,,,,,,,,,,,,,,,,,,,,,,,,,,,,,,,,,,,,,,,,,,,,,,,,,,,,,,260.2690740823746,261.3209619522095,260.30198407173157,None,,,,,,,,,,,,,,,,,258.46692299842834,None,259.45157289505005,None,2,0,0.7086641788482666,259.45157289505005,None,,,,,,,,,,,,,,,,,,,,,,,,,,,,1000,001,01,2021_Nov_02_1101,task-switching-replication,2021.2.3,59.82794649823624,
1,14,timed,01,standing,noswitch,incongruant,solid,square,blue,stimuli/solid-rectangle.png,stimuli/blue-square.png,1,,,,,,,,,,,,,0,13,13,13,,,,,,,,,,,,,,,,,,,,,,,,,,,,,,,,,,,,,,,,,,,,,,,,,,,,,,,,,,,,,,,,,,,,,,,,,,,,,,,,,,,,,,,,,,,,265.3230459690094,None,,,,,,,,,,,,,,,,,,,,,,,,,,,,,,,,,,,,,,,,,,,,,,,,,,,,,,,,,1000,001,01,2021_Nov_02_1101,task-switching-replication,2021.2.3,59.82794649823624,
1,15,timed,01,standing,noswitch,incongruant,solid,square,yellow,stimuli/solid-rectangle.png,stimuli/yellow-square.png,2,,,,,,,,,,,,,0,14,14,14,0,0,0,0,,,,,,,,,,,,,,,,,,,,,,,,,,,,,,,,,,,,,,,,,,,,,,,,,,,,,,,,,,,,,,,,,,,,,,,,,,,,,,,,,,,,,,,,,,267.5603469610214,268.6120409965515,267.592365026474,None,,,,,,,,,,,,,,,,,265.5196371078491,None,266.50386810302734,None,1,0,0.9456408023834229,266.50386810302734,None,,,,,,,,,,,,,,,,,,,,,,,,,,,,1000,001,01,2021_Nov_02_1101,task-switching-replication,2021.2.3,59.82794649823624,
1,15,timed,01,standing,noswitch,incongruant,solid,square,yellow,stimuli/solid-rectangle.png,stimuli/yellow-square.png,2,,,,,,,,,,,,,0,14,14,14,,,,,,,,,,,,,,,,,,,,,,,,,,,,,,,,,,,,,,,,,,,,,,,,,,,,,,,,,,,,,,,,,,,,,,,,,,,,,,,,,,,,,,,,,,,,272.61348605155945,None,,,,,,,,,,,,,,,,,,,,,,,,,,,,,,,,,,,,,,,,,,,,,,,,,,,,,,,,,1000,001,01,2021_Nov_02_1101,task-switching-replication,2021.2.3,59.82794649823624,
1,16,timed,01,standing,noswitch,congruant,solid,square,yellow,stimuli/solid-rectangle.png,stimuli/yellow-square.png,2,,,,,,,,,,,,,0,15,15,15,,,,,,,,,,,,,,,,,,,,,,,,,,,,,,,,,,,,,,,,,,,,,,,,,,,,,,,,,,,,,,,,,,,,,,,,,,,,,,,,,,,,,,,,,,,,274.2856960296631,None,,,,,,,,,,,,,,,,,,,,,272.8100779056549,None,273.7946209907532,None,2,1,0.38907694816589355,273.7946209907532,None,,,,,,,,,,,,,,,,,,,,,,,,,,,,1000,001,01,2021_Nov_02_1101,task-switching-replication,2021.2.3,59.82794649823624,
1,17,timed,01,standing,switch,incongruant,dashed,triangle,yellow,stimuli/dashed-rectangle.png,stimuli/yellow-triangle.png,1,,,,,,,,,,,,,0,16,16,16,,,,,,,,,,,,,,,,,,,,,,,,,,,,,,,,,,,,,,,,,,,,,,,,,,,,,,,,,,,,,,,,,,,,,,,,,,,,,,,,,,,,,,,,,,,,276.58550906181335,None,,,,,,,,,,,,,,,,,,,,,274.5152208805084,None,275.498477935791,None,1,1,0.9623041152954102,275.498477935791,None,,,,,,,,,,,,,,,,,,,,,,,,,,,,1000,001,01,2021_Nov_02_1101,task-switching-replication,2021.2.3,59.82794649823624,
1,18,timed,01,standing,noswitch,congruant,dashed,triangle,blue,stimuli/dashed-rectangle.png,stimuli/blue-triangle.png,1,,,,,,,,,,,,,0,17,17,17,,,,,,,,,,,,,,,,,,,,,,,,,,,,,,,,,,,,,,,,,,,,,,,,,,,,,,,,,,,,,,,,,,,,,,,,,,,,,,,,,,,,,,,,,,,,278.4070200920105,None,,,,,,,,,,,,,,,,,,,,,276.81428694725037,None,277.79789996147156,None,1,1,0.48218512535095215,277.79789996147156,None,,,,,,,,,,,,,,,,,,,,,,,,,,,,1000,001,01,2021_Nov_02_1101,task-switching-replication,2021.2.3,59.82794649823624,
1,19,timed,01,standing,switch,incongruant,solid,triangle,yellow,stimuli/solid-rectangle.png,stimuli/yellow-triangle.png,2,,,,,,,,,,,,,0,18,18,18,0,0,0,0,,,,,,,,,,,,,,,,,,,,,,,,,,,,,,,,,,,,,,,,,,,,,,,,,,,,,,,,,,,,,,,,,,,,,,,,,,,,,,,,,,,,,,,,,,280.3785539865494,281.4311800003052,280.411612033844,None,,,,,,,,,,,,,,,,,278.6356179714203,None,279.6200249195099,None,1,0,0.6619880199432373,279.6200249195099,None,,,,,,,,,,,,,,,,,,,,,,,,,,,,1000,001,01,2021_Nov_02_1101,task-switching-replication,2021.2.3,59.82794649823624,
1,19,timed,01,standing,switch,incongruant,solid,triangle,yellow,stimuli/solid-rectangle.png,stimuli/yellow-triangle.png,2,,,,,,,,,,,,,0,18,18,18,,,,,,,,,,,,,,,,,,,,,,,,,,,,,,,,,,,,,,,,,,,,,,,,,,,,,,,,,,,,,,,,,,,,,,,,,,,,,,,,,,,,,,,,,,,,285.43372893333435,None,,,,,,,,,,,,,,,,,,,,,,,,,,,,,,,,,,,,,,,,,,,,,,,,,,,,,,,,,1000,001,01,2021_Nov_02_1101,task-switching-replication,2021.2.3,59.82794649823624,
1,20,timed,01,standing,noswitch,incongruant,solid,triangle,blue,stimuli/solid-rectangle.png,stimuli/blue-triangle.png,1,,,,,,,,,,,,,0,19,19,19,,,,,,,,,,,,,,,,,,,,,,,,,,,,,,,,,,,,,,,,,,,,,,,,,,,,,,,,,,,,,,,,,,,,,,,,,,,,,,,,,,,,,,,,,,,,287.75522089004517,None,,,,,,,,,,,,,,,,,,,,,285.6301519870758,None,286.61444902420044,None,1,1,1.012375831604004,286.61444902420044,None,,,,,,,,,,,,,,,,,,,,,,,,,,,,1000,001,01,2021_Nov_02_1101,task-switching-replication,2021.2.3,59.82794649823624,
1,21,timed,01,standing,switch,incongruant,dashed,square,yellow,stimuli/dashed-rectangle.png,stimuli/yellow-square.png,2,,,,,,,,,,,,,0,20,20,20,,,,,,,,,,,,,,,,,,,,,,,,,,,,,,,,,,,,,,,,,,,,,,,,,,,,,,,,,,,,,,,,,,,,,,,,,,,,,,,,,,,,,,,,,,,,289.81501603126526,None,,,,,,,,,,,,,,,,,,,,,287.98582696914673,None,288.9700849056244,None,2,1,0.7475969791412354,288.9700849056244,None,,,,,,,,,,,,,,,,,,,,,,,,,,,,1000,001,01,2021_Nov_02_1101,task-switching-replication,2021.2.3,59.82794649823624,
1,22,timed,01,standing,noswitch,congruant,dashed,square,blue,stimuli/dashed-rectangle.png,stimuli/blue-square.png,2,,,,,,,,,,,,,0,21,21,21,,,,,,,,,,,,,,,,,,,,,,,,,,,,,,,,,,,,,,,,,,,,,,,,,,,,,,,,,,,,,,,,,,,,,,,,,,,,,,,,,,,,,,,,,,,,292.2258560657501,None,,,,,,,,,,,,,,,,,,,,,290.04347491264343,None,291.02619099617004,None,2,1,1.093641996383667,291.02619099617004,None,,,,,,,,,,,,,,,,,,,,,,,,,,,,1000,001,01,2021_Nov_02_1101,task-switching-replication,2021.2.3,59.82794649823624,
1,23,timed,01,standing,switch,incongruant,solid,square,blue,stimuli/solid-rectangle.png,stimuli/blue-square.png,1,,,,,,,,,,,,,0,22,22,22,0,0,0,0,,,,,,,,,,,,,,,,,,,,,,,,,,,,,,,,,,,,,,,,,,,,,,,,,,,,,,,,,,,,,,,,,,,,,,,,,,,,,,,,,,,,,,,,,,294.9740001678467,296.0251040458679,295.0052070617676,None,,,,,,,,,,,,,,,,,292.45485496520996,None,293.4393138885498,None,None,0,,293.4393138885498,None,,,,,,,,,,,,,,,,,,,,,,,,,,,,1000,001,01,2021_Nov_02_1101,task-switching-replication,2021.2.3,59.82794649823624,
1,23,timed,01,standing,switch,incongruant,solid,square,blue,stimuli/solid-rectangle.png,stimuli/blue-square.png,1,,,,,,,,,,,,,0,22,22,22,,,,,,,,,,,,,,,,,,,,,,,,,,,,,,,,,,,,,,,,,,,,,,,,,,,,,,,,,,,,,,,,,,,,,,,,,,,,,,,,,,,,,,,,,,,,300.0297260284424,None,,,,,,,,,,,,,,,,,,,,,,,,,,,,,,,,,,,,,,,,,,,,,,,,,,,,,,,,,1000,001,01,2021_Nov_02_1101,task-switching-replication,2021.2.3,59.82794649823624,
1,24,timed,01,standing,noswitch,congruant,solid,square,blue,stimuli/solid-rectangle.png,stimuli/blue-square.png,1,,,,,,,,,,,,,0,23,23,23,,,,,,,,,,,,,,,,,,,,,,,,,,,,,,,,,,,,,,,,,,,,,,,,,,,,,,,,,,,,,,,,,,,,,,,,,,,,,,,,,,,,,,,,,,,,302.0568690299988,None,,,,,,,,,,,,,,,,,,,,,300.22632598876953,None,301.2111659049988,None,1,1,0.7077760696411133,301.2111659049988,None,,,,,,,,,,,,,,,,,,,,,,,,,,,,1000,001,01,2021_Nov_02_1101,task-switching-replication,2021.2.3,59.82794649823624,
1,1,experiment,01,standing,buffer,buffer,solid,square,yellow,stimuli/solid-rectangle.png,stimuli/yellow-square.png,2,,,,,,,,,,,,,,,,,,,,,,,,,0,0,0,0,0,0,0,0,0,0,0,0,,,,,,,,,302.29859495162964,None,2,14.383260011672974,302.29859495162964,None,,,,,,,,,,,,,,,,,,,,,,,,,,,,,,,,,,,,,,,,,,,,,,,,,,,,,,,,,,340.82584595680237,None,,,,,,,,,,,,,,,,,,,,,,,,,,,,,,316.7917289733887,None,2,18.539729833602905,316.7917289733887,None,335.4534749984741,None,2,3.2947998046875,335.4534749984741,None,338.87397503852844,None,339.8608319759369,None,2,1,0.8505351543426514,339.8608319759369,None,,,,,,,1000,001,01,2021_Nov_02_1101,task-switching-replication,2021.2.3,59.82794649823624,
1,2,experiment,01,standing,noswitch,incongruant,solid,triangle,blue,stimuli/solid-rectangle.png,stimuli/blue-triangle.png,1,,,,,,,,,,,,,,,,,,,,,,,,,0,0,0,0,0,0,0,0,0,1,1,1,,,,,,,,,,,,,,,,,,,,,,,,,,,,,,,,,,,,,,,,,,,,,,,,,,,,,,,,,,,,,,,,,,,,,,,,342.7679989337921,None,,,,,,,,,,,,,,,,,,,,,,,,,,,,,,,,,,,,,,,,,,341.0550470352173,None,342.0392599105835,None,1,1,0.5903060436248779,342.0392599105835,None,,,,,,,1000,001,01,2021_Nov_02_1101,task-switching-replication,2021.2.3,59.82794649823624,
1,3,experiment,01,standing,noswitch,incongruant,solid,triangle,yellow,stimuli/solid-rectangle.png,stimuli/yellow-triangle.png,2,,,,,,,,,,,,,,,,,,,,,,,,,0,0,0,0,0,0,0,0,0,2,2,2,0,0,0,0,,,,,,,,,,,,,,,,,,,,,,,,,,,,,,,,,,,,,,,,,,,,,,,,,,,,,,,,,,,,,,,,,,,,,,344.5025819540024,345.52484107017517,344.5356569290161,None,,,,,,,,,,,,,,,,,,,,,,,,,,,,,,,,,,,,,,342.99652791023254,None,343.98012590408325,None,1,0,0.42811012268066406,343.98012590408325,None,,,,,,,1000,001,01,2021_Nov_02_1101,task-switching-replication,2021.2.3,59.82794649823624,
1,3,experiment,01,standing,noswitch,incongruant,solid,triangle,yellow,stimuli/solid-rectangle.png,stimuli/yellow-triangle.png,2,,,,,,,,,,,,,,,,,,,,,,,,,0,0,0,0,0,0,0,0,0,2,2,2,,,,,,,,,,,,,,,,,,,,,,,,,,,,,,,,,,,,,,,,,,,,,,,,,,,,,,,,,,,,,,,,,,,,,,,,349.56024503707886,None,,,,,,,,,,,,,,,,,,,,,,,,,,,,,,,,,,,,,,,,,,,,,,,,,,,,,,,,,1000,001,01,2021_Nov_02_1101,task-switching-replication,2021.2.3,59.82794649823624,
1,4,experiment,01,standing,switch,incongruant,dashed,triangle,yellow,stimuli/dashed-rectangle.png,stimuli/yellow-triangle.png,1,,,,,,,,,,,,,,,,,,,,,,,,,0,0,0,0,0,0,0,0,0,3,3,3,,,,,,,,,,,,,,,,,,,,,,,,,,,,,,,,,,,,,,,,,,,,,,,,,,,,,,,,,,,,,,,,,,,,,,,,351.6460180282593,None,,,,,,,,,,,,,,,,,,,,,,,,,,,,,,,,,,,,,,,,,,349.756609916687,None,350.74107098579407,None,1,1,0.7670788764953613,350.74107098579407,None,,,,,,,1000,001,01,2021_Nov_02_1101,task-switching-replication,2021.2.3,59.82794649823624,
1,5,experiment,01,standing,noswitch,incongruant,dashed,square,yellow,stimuli/dashed-rectangle.png,stimuli/yellow-square.png,2,,,,,,,,,,,,,,,,,,,,,,,,,0,0,0,0,0,0,0,0,0,4,4,4,,,,,0,0,0,0,,,,,,,,,,,,,,,,,,,,,,,,,,,,,,,,,,,,,,,,,,,,,,,,,,,,,,,,,,,,,,,,,,,,,,353.61771404743195,354.635684967041,353.65105509757996,None,,,,,,,,,,,,,,,,,,,,,,,,,,,,,,,,,,351.8751029968262,None,352.8592801094055,None,1,0,0.6627371311187744,352.8592801094055,None,,,,,,,1000,001,01,2021_Nov_02_1101,task-switching-replication,2021.2.3,59.82794649823624,
1,5,experiment,01,standing,noswitch,incongruant,dashed,square,yellow,stimuli/dashed-rectangle.png,stimuli/yellow-square.png,2,,,,,,,,,,,,,,,,,,,,,,,,,0,0,0,0,0,0,0,0,0,4,4,4,,,,,,,,,,,,,,,,,,,,,,,,,,,,,,,,,,,,,,,,,,,,,,,,,,,,,,,,,,,,,,,,,,,,,,,,358.67547607421875,None,,,,,,,,,,,,,,,,,,,,,,,,,,,,,,,,,,,,,,,,,,,,,,,,,,,,,,,,,1000,001,01,2021_Nov_02_1101,task-switching-replication,2021.2.3,59.82794649823624,
1,6,experiment,01,standing,noswitch,congruant,dashed,square,blue,stimuli/dashed-rectangle.png,stimuli/blue-square.png,2,,,,,,,,,,,,,,,,,,,,,,,,,0,0,0,0,0,0,0,0,0,5,5,5,,,,,,,,,,,,,,,,,,,,,,,,,,,,,,,,,,,,,,,,,,,,,,,,,,,,,,,,,,,,,,,,,,,,,,,,360.4716238975525,None,,,,,,,,,,,,,,,,,,,,,,,,,,,,,,,,,,,,,,,,,,358.87204694747925,None,359.85709500312805,None,2,1,0.48533105850219727,359.85709500312805,None,,,,,,,1000,001,01,2021_Nov_02_1101,task-switching-replication,2021.2.3,59.82794649823624,
1,7,experiment,01,standing,noswitch,incongruant,dashed,triangle,yellow,stimuli/dashed-rectangle.png,stimuli/yellow-triangle.png,1,,,,,,,,,,,,,,,,,,,,,,,,,0,0,0,0,0,0,0,0,0,6,6,6,,,,,,,,,,,,,,,,,,,,,,,,,,,,,,,,,,,,,,,,,,,,,,,,,,,,,,,,,,,,,,,,,,,,,,,,362.41215801239014,None,,,,,,,,,,,,,,,,,,,,,,,,,,,,,,,,,,,,,,,,,,360.7001430988312,None,361.68515706062317,None,1,1,0.624506950378418,361.68515706062317,None,,,,,,,1000,001,01,2021_Nov_02_1101,task-switching-replication,2021.2.3,59.82794649823624,
1,8,experiment,01,standing,noswitch,congruant,dashed,triangle,blue,stimuli/dashed-rectangle.png,stimuli/blue-triangle.png,1,,,,,,,,,,,,,,,,,,,,,,,,,0,0,0,0,0,0,0,0,0,7,7,7,,,,,,,,,,,,,,,,,,,,,,,,,,,,,,,,,,,,,,,,,,,,,,,,,,,,,,,,,,,,,,,,,,,,,,,,364.1172630786896,None,,,,,,,,,,,,,,,,,,,,,,,,,,,,,,,,,,,,,,,,,,362.64117097854614,None,363.62579894065857,None,1,1,0.38605403900146484,363.62579894065857,None,,,,,,,1000,001,01,2021_Nov_02_1101,task-switching-replication,2021.2.3,59.82794649823624,
1,9,experiment,01,standing,noswitch,congruant,dashed,triangle,blue,stimuli/dashed-rectangle.png,stimuli/blue-triangle.png,1,,,,,,,,,,,,,,,,,,,,,,,,,0,0,0,0,0,0,0,0,0,8,8,8,,,,,,,,,,,,,,,,,,,,,,,,,,,,,,,,,,,,,,,,,,,,,,,,,,,,,,,,,,,,,,,,,,,,,,,,365.8817870616913,None,,,,,,,,,,,,,,,,,,,,,,,,,,,,,,,,,,,,,,,,,,364.34624791145325,None,365.33092308044434,None,1,1,0.4220139980316162,365.33092308044434,None,,,,,,,1000,001,01,2021_Nov_02_1101,task-switching-replication,2021.2.3,59.82794649823624,
1,10,experiment,01,standing,switch,incongruant,solid,triangle,yellow,stimuli/solid-rectangle.png,stimuli/yellow-triangle.png,2,,,,,,,,,,,,,,,,,,,,,,,,,0,0,0,0,0,0,0,0,0,9,9,9,0,0,0,0,,,,,,,,,,,,,,,,,,,,,,,,,,,,,,,,,,,,,,,,,,,,,,,,,,,,,,,,,,,,,,,,,,,,,,368.1490510702133,369.20153307914734,368.1820390224457,None,,,,,,,,,,,,,,,,,,,,,,,,,,,,,,,,,,,,,,366.11061000823975,None,367.09530091285706,None,1,0,0.9416220188140869,367.09530091285706,None,,,,,,,1000,001,01,2021_Nov_02_1101,task-switching-replication,2021.2.3,59.82794649823624,
1,10,experiment,01,standing,switch,incongruant,solid,triangle,yellow,stimuli/solid-rectangle.png,stimuli/yellow-triangle.png,2,,,,,,,,,,,,,,,,,,,,,,,,,0,0,0,0,0,0,0,0,0,9,9,9,,,,,,,,,,,,,,,,,,,,,,,,,,,,,,,,,,,,,,,,,,,,,,,,,,,,,,,,,,,,,,,,,,,,,,,,373.20491003990173,None,,,,,,,,,,,,,,,,,,,,,,,,,,,,,,,,,,,,,,,,,,,,,,,,,,,,,,,,,1000,001,01,2021_Nov_02_1101,task-switching-replication,2021.2.3,59.82794649823624,
1,11,experiment,01,standing,switch,incongruant,dashed,triangle,yellow,stimuli/dashed-rectangle.png,stimuli/yellow-triangle.png,1,,,,,,,,,,,,,,,,,,,,,,,,,0,0,0,0,0,0,0,0,0,10,10,10,,,,,,,,,,,,,,,,,,,,,,,,,,,,,,,,,,,,,,,,,,,,,,,,,,,,,,,,,,,,,,,,,,,,,,,,374.9955060482025,None,,,,,,,,,,,,,,,,,,,,,,,,,,,,,,,,,,,,,,,,,,373.4011719226837,None,374.3858160972595,None,1,1,0.5149447917938232,374.3858160972595,None,,,,,,,1000,001,01,2021_Nov_02_1101,task-switching-replication,2021.2.3,59.82794649823624,
1,12,experiment,01,standing,noswitch,congruant,dashed,triangle,yellow,stimuli/dashed-rectangle.png,stimuli/yellow-triangle.png,1,,,,,,,,,,,,,,,,,,,,,,,,,0,0,0,0,0,0,0,0,0,11,11,11,,,,,,,,,,,,,,,,,,,,,,,,,,,,,,,,,,,,,,,,,,,,,,,,,,,,,,,,,,,,,,,,,,,,,,,,376.81895089149475,None,,,,,,,,,,,,,,,,,,,,,,,,,,,,,,,,,,,,,,,,,,375.2243890762329,None,376.2090640068054,None,1,1,0.4747180938720703,376.2090640068054,None,,,,,,,1000,001,01,2021_Nov_02_1101,task-switching-replication,2021.2.3,59.82794649823624,
1,13,experiment,01,standing,noswitch,incongruant,dashed,square,blue,stimuli/dashed-rectangle.png,stimuli/blue-square.png,2,,,,,,,,,,,,,,,,,,,,,,,,,0,0,0,0,0,0,0,0,0,12,12,12,,,,,,,,,,,,,,,,,,,,,,,,,,,,,,,,,,,,,,,,,,,,,,,,,,,,,,,,,,,,,,,,,,,,,,,,378.8808479309082,None,,,,,,,,,,,,,,,,,,,,,,,,,,,,,,,,,,,,,,,,,,377.04773592948914,None,378.0321719646454,None,2,1,0.7147541046142578,378.0321719646454,None,,,,,,,1000,001,01,2021_Nov_02_1101,task-switching-replication,2021.2.3,59.82794649823624,
1,14,experiment,01,standing,switch,congruant,solid,square,yellow,stimuli/solid-rectangle.png,stimuli/yellow-square.png,2,,,,,,,,,,,,,,,,,,,,,,,,,0,0,0,0,0,0,0,0,0,13,13,13,,,,,,,,,,,,,,,,,,,,,,,,,,,,,,,,,,,,,,,,,,,,,,,,,,,,,,,,,,,,,,,,,,,,,,,,381.05843710899353,None,,,,,,,,,,,,,,,,,,,,,,,,,,,,,,,,,,,,,,,,,,379.10977697372437,None,380.0943100452423,None,2,1,0.8478331565856934,380.0943100452423,None,,,,,,,1000,001,01,2021_Nov_02_1101,task-switching-replication,2021.2.3,59.82794649823624,
1,15,experiment,01,standing,noswitch,congruant,solid,square,yellow,stimuli/solid-rectangle.png,stimuli/yellow-square.png,2,,,,,,,,,,,,,,,,,,,,,,,,,0,0,0,0,0,0,0,0,0,14,14,14,,,,,,,,,,,,,,,,,,,,,,,,,,,,,,,,,,,,,,,,,,,,,,,,,,,,,,,,,,,,,,,,,,,,,,,,382.8208589553833,None,,,,,,,,,,,,,,,,,,,,,,,,,,,,,,,,,,,,,,,,,,381.2872750759125,None,382.2704620361328,None,2,1,0.4303460121154785,382.2704620361328,None,,,,,,,1000,001,01,2021_Nov_02_1101,task-switching-replication,2021.2.3,59.82794649823624,
1,16,experiment,01,standing,switch,congruant,dashed,square,yellow,stimuli/dashed-rectangle.png,stimuli/yellow-square.png,2,,,,,,,,,,,,,,,,,,,,,,,,,0,0,0,0,0,0,0,0,0,15,15,15,,,,,,,,,,,,,,,,,,,,,,,,,,,,,,,,,,,,,,,,,,,,,,,,,,,,,,,,,,,,,,,,,,,,,,,,384.58509397506714,None,,,,,,,,,,,,,,,,,,,,,,,,,,,,,,,,,,,,,,,,,,383.0497159957886,None,384.0343089103699,None,2,1,0.4585409164428711,384.0343089103699,None,,,,,,,1000,001,01,2021_Nov_02_1101,task-switching-replication,2021.2.3,59.82794649823624,
1,17,experiment,01,standing,switch,incongruant,solid,square,blue,stimuli/solid-rectangle.png,stimuli/blue-square.png,1,,,,,,,,,,,,,,,,,,,,,,,,,0,0,0,0,0,0,0,0,0,16,16,16,,,,,,,,,,,,,,,,,,,,,,,,,,,,,,,,,,,,,,,,,,,,,,,,,,,,,,,,,,,,,,,,,,,,,,,,386.5854060649872,None,,,,,,,,,,,,,,,,,,,,,,,,,,,,,,,,,,,,,,,,,,384.81392097473145,None,385.7986650466919,None,1,1,0.679711103439331,385.7986650466919,None,,,,,,,1000,001,01,2021_Nov_02_1101,task-switching-replication,2021.2.3,59.82794649823624,
1,18,experiment,01,standing,switch,congruant,dashed,triangle,blue,stimuli/dashed-rectangle.png,stimuli/blue-triangle.png,1,,,,,,,,,,,,,,,,,,,,,,,,,0,0,0,0,0,0,0,0,0,17,17,17,,,,,,,,,,,,,,,,,,,,,,,,,,,,,,,,,,,,,,,,,,,,,,,,,,,,,,,,,,,,,,,,,,,,,,,,389.0559821128845,None,,,,,,,,,,,,,,,,,,,,,,,,,,,,,,,,,,,,,,,,,,386.8140869140625,None,387.7978239059448,None,1,1,1.143887996673584,387.7978239059448,None,,,,,,,1000,001,01,2021_Nov_02_1101,task-switching-replication,2021.2.3,59.82794649823624,
1,19,experiment,01,standing,switch,incongruant,solid,triangle,yellow,stimuli/solid-rectangle.png,stimuli/yellow-triangle.png,2,,,,,,,,,,,,,,,,,,,,,,,,,0,0,0,0,0,0,0,0,0,18,18,18,0,0,0,0,,,,,,,,,,,,,,,,,,,,,,,,,,,,,,,,,,,,,,,,,,,,,,,,,,,,,,,,,,,,,,,,,,,,,,390.9671069383621,391.98483204841614,391.00022196769714,None,,,,,,,,,,,,,,,,,,,,,,,,,,,,,,,,,,,,,,389.2842879295349,None,390.26789593696594,None,1,0,0.6207010746002197,390.26789593696594,None,,,,,,,1000,001,01,2021_Nov_02_1101,task-switching-replication,2021.2.3,59.82794649823624,
1,19,experiment,01,standing,switch,incongruant,solid,triangle,yellow,stimuli/solid-rectangle.png,stimuli/yellow-triangle.png,2,,,,,,,,,,,,,,,,,,,,,,,,,0,0,0,0,0,0,0,0,0,18,18,18,,,,,,,,,,,,,,,,,,,,,,,,,,,,,,,,,,,,,,,,,,,,,,,,,,,,,,,,,,,,,,,,,,,,,,,,396.0220079421997,None,,,,,,,,,,,,,,,,,,,,,,,,,,,,,,,,,,,,,,,,,,,,,,,,,,,,,,,,,1000,001,01,2021_Nov_02_1101,task-switching-replication,2021.2.3,59.82794649823624,
1,20,experiment,01,standing,noswitch,incongruant,solid,triangle,blue,stimuli/solid-rectangle.png,stimuli/blue-triangle.png,1,,,,,,,,,,,,,,,,,,,,,,,,,0,0,0,0,0,0,0,0,0,19,19,19,,,,,,,,,,,,,,,,,,,,,,,,,,,,,,,,,,,,,,,,,,,,,,,,,,,,,,,,,,,,,,,,,,,,,,,,397.7535309791565,None,,,,,,,,,,,,,,,,,,,,,,,,,,,,,,,,,,,,,,,,,,396.2186028957367,None,397.2028000354767,None,1,1,0.4397318363189697,397.2028000354767,None,,,,,,,1000,001,01,2021_Nov_02_1101,task-switching-replication,2021.2.3,59.82794649823624,
1,21,experiment,01,standing,switch,congruant,dashed,triangle,blue,stimuli/dashed-rectangle.png,stimuli/blue-triangle.png,1,,,,,,,,,,,,,,,,,,,,,,,,,0,0,0,0,0,0,0,0,0,20,20,20,,,,,,,,,,,,,,,,,,,,,,,,,,,,,,,,,,,,,,,,,,,,,,,,,,,,,,,,,,,,,,,,,,,,,,,,399.63620710372925,None,,,,,,,,,,,,,,,,,,,,,,,,,,,,,,,,,,,,,,,,,,397.98268389701843,None,398.9676389694214,None,1,1,0.5758979320526123,398.9676389694214,None,,,,,,,1000,001,01,2021_Nov_02_1101,task-switching-replication,2021.2.3,59.82794649823624,
1,22,experiment,01,standing,noswitch,incongruant,dashed,square,blue,stimuli/dashed-rectangle.png,stimuli/blue-square.png,2,,,,,,,,,,,,,,,,,,,,,,,,,0,0,0,0,0,0,0,0,0,21,21,21,,,,,,,,,,,,,,,,,,,,,,,,,,,,,,,,,,,,,,,,,,,,,,,,,,,,,,,,,,,,,,,,,,,,,,,,401.4599280357361,None,,,,,,,,,,,,,,,,,,,,,,,,,,,,,,,,,,,,,,,,,,399.8651258945465,None,400.8499150276184,None,2,1,0.4816269874572754,400.8499150276184,None,,,,,,,1000,001,01,2021_Nov_02_1101,task-switching-replication,2021.2.3,59.82794649823624,
1,23,experiment,01,standing,switch,incongruant,solid,square,blue,stimuli/solid-rectangle.png,stimuli/blue-square.png,1,,,,,,,,,,,,,,,,,,,,,,,,,0,0,0,0,0,0,0,0,0,22,22,22,,,,,,,,,,,,,,,,,,,,,,,,,,,,,,,,,,,,,,,,,,,,,,,,,,,,,,,,,,,,,,,,,,,,,,,,403.9954628944397,None,,,,,,,,,,,,,,,,,,,,,,,,,,,,,,,,,,,,,,,,,,401.6887888908386,None,402.6735370159149,None,1,1,1.1881489753723145,402.6735370159149,None,,,,,,,1000,001,01,2021_Nov_02_1101,task-switching-replication,2021.2.3,59.82794649823624,
1,24,experiment,01,standing,noswitch,incongruant,solid,square,yellow,stimuli/solid-rectangle.png,stimuli/yellow-square.png,2,,,,,,,,,,,,,,,,,,,,,,,,,0,0,0,0,0,0,0,0,0,23,23,23,,,,,,,,,,,,,,,,,,,,,,,,,,,,,,,,,,,,,,,,,,,,,,,,,,,,,,,,,,,,,,,,,,,,,,,,405.87892293930054,None,,,,,,,,,,,,,,,,,,,,,,,,,,,,,,,,,,,,,,,,,,404.22459292411804,None,405.2088499069214,None,2,1,0.5167269706726074,405.2088499069214,None,,,,,,,1000,001,01,2021_Nov_02_1101,task-switching-replication,2021.2.3,59.82794649823624,
1,25,experiment,01,standing,switch,incongruant,dashed,triangle,yellow,stimuli/dashed-rectangle.png,stimuli/yellow-triangle.png,1,,,,,,,,,,,,,,,,,,,,,,,,,0,0,0,0,0,0,0,0,0,24,24,24,,,,,,,,,,,,,,,,,,,,,,,,,,,,,,,,,,,,,,,,,,,,,,,,,,,,,,,,,,,,,,,,,,,,,,,,407.8213610649109,None,,,,,,,,,,,,,,,,,,,,,,,,,,,,,,,,,,,,,,,,,,406.1077289581299,None,407.0922939777374,None,1,1,0.5853419303894043,407.0922939777374,None,,,,,,,1000,001,01,2021_Nov_02_1101,task-switching-replication,2021.2.3,59.82794649823624,
1,26,experiment,01,standing,switch,congruant,solid,square,blue,stimuli/solid-rectangle.png,stimuli/blue-square.png,1,,,,,,,,,,,,,,,,,,,,,,,,,0,0,0,0,0,0,0,0,0,25,25,25,0,0,0,0,,,,,,,,,,,,,,,,,,,,,,,,,,,,,,,,,,,,,,,,,,,,,,,,,,,,,,,,,,,,,,,,,,,,,,409.79662001132965,410.8480489253998,409.8287739753723,None,,,,,,,,,,,,,,,,,,,,,,,,,,,,,,,,,,,,,,408.0502688884735,None,409.0344319343567,None,2,0,0.6412999629974365,409.0344319343567,None,,,,,,,1000,001,01,2021_Nov_02_1101,task-switching-replication,2021.2.3,59.82794649823624,
1,26,experiment,01,standing,switch,congruant,solid,square,blue,stimuli/solid-rectangle.png,stimuli/blue-square.png,1,,,,,,,,,,,,,,,,,,,,,,,,,0,0,0,0,0,0,0,0,0,25,25,25,,,,,,,,,,,,,,,,,,,,,,,,,,,,,,,,,,,,,,,,,,,,,,,,,,,,,,,,,,,,,,,,,,,,,,,,414.849004983902,None,,,,,,,,,,,,,,,,,,,,,,,,,,,,,,,,,,,,,,,,,,,,,,,,,,,,,,,,,1000,001,01,2021_Nov_02_1101,task-switching-replication,2021.2.3,59.82794649823624,
1,27,experiment,01,standing,noswitch,incongruant,solid,square,yellow,stimuli/solid-rectangle.png,stimuli/yellow-square.png,2,,,,,,,,,,,,,,,,,,,,,,,,,0,0,0,0,0,0,0,0,0,26,26,26,,,,,,,,,,,,,,,,,,,,,,,,,,,,,,,,,,,,,,,,,,,,,,,,,,,,,,,,,,,,,,,,,,,,,,,,417.0512709617615,None,,,,,,,,,,,,,,,,,,,,,,,,,,,,,,,,,,,,,,,,,,415.0453128814697,None,416.0285658836365,None,2,1,0.9149019718170166,416.0285658836365,None,,,,,,,1000,001,01,2021_Nov_02_1101,task-switching-replication,2021.2.3,59.82794649823624,
1,28,experiment,01,standing,noswitch,congruant,solid,square,yellow,stimuli/solid-rectangle.png,stimuli/yellow-square.png,2,,,,,,,,,,,,,,,,,,,,,,,,,0,0,0,0,0,0,0,0,0,27,27,27,,,,,,,,,,,,,,,,,,,,,,,,,,,,,,,,,,,,,,,,,,,,,,,,,,,,,,,,,,,,,,,,,,,,,,,,419.1106810569763,None,,,,,,,,,,,,,,,,,,,,,,,,,,,,,,,,,,,,,,,,,,417.28076791763306,None,418.265163898468,None,2,1,0.7494089603424072,418.265163898468,None,,,,,,,1000,001,01,2021_Nov_02_1101,task-switching-replication,2021.2.3,59.82794649823624,
1,29,experiment,01,standing,noswitch,incongruant,solid,square,blue,stimuli/solid-rectangle.png,stimuli/blue-square.png,1,,,,,,,,,,,,,,,,,,,,,,,,,0,0,0,0,0,0,0,0,0,28,28,28,,,,,,,,,,,,,,,,,,,,,,,,,,,,,,,,,,,,,,,,,,,,,,,,,,,,,,,,,,,,,,,,,,,,,,,,421.46531891822815,None,,,,,,,,,,,,,,,,,,,,,,,,,,,,,,,,,,,,,,,,,,419.3396248817444,None,420.3237900733948,None,1,1,1.017948865890503,420.3237900733948,None,,,,,,,1000,001,01,2021_Nov_02_1101,task-switching-replication,2021.2.3,59.82794649823624,
1,30,experiment,01,standing,switch,incongruant,dashed,square,yellow,stimuli/dashed-rectangle.png,stimuli/yellow-square.png,2,,,,,,,,,,,,,,,,,,,,,,,,,0,0,0,0,0,0,0,0,0,29,29,29,,,,,,,,,,,,,,,,,,,,,,,,,,,,,,,,,,,,,,,,,,,,,,,,,,,,,,,,,,,,,,,,,,,,,,,,423.4064140319824,None,,,,,,,,,,,,,,,,,,,,,,,,,,,,,,,,,,,,,,,,,,421.6943690776825,None,422.678915977478,None,2,1,0.5838279724121094,422.678915977478,None,,,,,,,1000,001,01,2021_Nov_02_1101,task-switching-replication,2021.2.3,59.82794649823624,
1,31,experiment,01,standing,switch,congruant,solid,triangle,yellow,stimuli/solid-rectangle.png,stimuli/yellow-triangle.png,2,,,,,,,,,,,,,,,,,,,,,,,,,0,0,0,0,0,0,0,0,0,30,30,30,,,,,,,,,,,,,,,,,,,,,,,,,,,,,,,,,,,,,,,,,,,,,,,,,,,,,,,,,,,,,,,,,,,,,,,,425.348042011261,None,,,,,,,,,,,,,,,,,,,,,,,,,,,,,,,,,,,,,,,,,,423.635409116745,None,424.62033700942993,None,2,1,0.5990948677062988,424.62033700942993,None,,,,,,,1000,001,01,2021_Nov_02_1101,task-switching-replication,2021.2.3,59.82794649823624,
1,32,experiment,01,standing,switch,congruant,dashed,square,blue,stimuli/dashed-rectangle.png,stimuli/blue-square.png,2,,,,,,,,,,,,,,,,,,,,,,,,,0,0,0,0,0,0,0,0,0,31,31,31,,,,,0,0,0,0,,,,,,,,,,,,,,,,,,,,,,,,,,,,,,,,,,,,,,,,,,,,,,,,,,,,,,,,,,,,,,,,,,,,,,427.3829630613327,428.43398809432983,427.41527009010315,None,,,,,,,,,,,,,,,,,,,,,,,,,,,,,,,,,,425.57681608200073,None,426.5602378845215,None,1,0,0.7259101867675781,426.5602378845215,None,,,,,,,1000,001,01,2021_Nov_02_1101,task-switching-replication,2021.2.3,59.82794649823624,
1,32,experiment,01,standing,switch,congruant,dashed,square,blue,stimuli/dashed-rectangle.png,stimuli/blue-square.png,2,,,,,,,,,,,,,,,,,,,,,,,,,0,0,0,0,0,0,0,0,0,31,31,31,,,,,,,,,,,,,,,,,,,,,,,,,,,,,,,,,,,,,,,,,,,,,,,,,,,,,,,,,,,,,,,,,,,,,,,,432.4374969005585,None,,,,,,,,,,,,,,,,,,,,,,,,,,,,,,,,,,,,,,,,,,,,,,,,,,,,,,,,,1000,001,01,2021_Nov_02_1101,task-switching-replication,2021.2.3,59.82794649823624,
1,33,experiment,01,standing,switch,incongruant,solid,square,blue,stimuli/solid-rectangle.png,stimuli/blue-square.png,1,,,,,,,,,,,,,,,,,,,,,,,,,0,0,0,0,0,0,0,0,0,32,32,32,,,,,,,,,,,,,,,,,,,,,,,,,,,,,,,,,,,,,,,,,,,,,,,,,,,,,,,,,,,,,,,,,,,,,,,,434.5818679332733,None,,,,,,,,,,,,,,,,,,,,,,,,,,,,,,,,,,,,,,,,,,432.63417410850525,None,433.61880588531494,None,1,1,0.8353638648986816,433.61880588531494,None,,,,,,,1000,001,01,2021_Nov_02_1101,task-switching-replication,2021.2.3,59.82794649823624,
1,34,experiment,01,standing,switch,incongruant,dashed,square,yellow,stimuli/dashed-rectangle.png,stimuli/yellow-square.png,2,,,,,,,,,,,,,,,,,,,,,,,,,0,0,0,0,0,0,0,0,0,33,33,33,,,,,,,,,,,,,,,,,,,,,,,,,,,,,,,,,,,,,,,,,,,,,,,,,,,,,,,,,,,,,,,,,,,,,,,,436.70074796676636,None,,,,,,,,,,,,,,,,,,,,,,,,,,,,,,,,,,,,,,,,,,434.81085205078125,None,435.7954840660095,None,2,1,0.7570509910583496,435.7954840660095,None,,,,,,,1000,001,01,2021_Nov_02_1101,task-switching-replication,2021.2.3,59.82794649823624,
1,35,experiment,01,standing,switch,congruant,solid,square,yellow,stimuli/solid-rectangle.png,stimuli/yellow-square.png,2,,,,,,,,,,,,,,,,,,,,,,,,,0,0,0,0,0,0,0,0,0,34,34,34,,,,,,,,,,,,,,,,,,,,,,,,,,,,,,,,,,,,,,,,,,,,,,,,,,,,,,,,,,,,,,,,,,,,,,,,438.70104002952576,None,,,,,,,,,,,,,,,,,,,,,,,,,,,,,,,,,,,,,,,,,,436.92978405952454,None,437.91406893730164,None,2,1,0.6431901454925537,437.91406893730164,None,,,,,,,1000,001,01,2021_Nov_02_1101,task-switching-replication,2021.2.3,59.82794649823624,
1,36,experiment,01,standing,switch,congruant,dashed,square,blue,stimuli/dashed-rectangle.png,stimuli/blue-square.png,2,,,,,,,,,,,,,,,,,,,,,,,,,0,0,0,0,0,0,0,0,0,35,35,35,,,,,0,0,0,0,,,,,,,,,,,,,,,,,,,,,,,,,,,,,,,,,,,,,,,,,,,,,,,,,,,,,,,,,,,,,,,,,,,,,,440.79507410526276,441.8472979068756,440.8276309967041,None,,,,,,,,,,,,,,,,,,,,,,,,,,,,,,,,,,438.9297800064087,None,439.91428899765015,None,1,0,0.7696449756622314,439.91428899765015,None,,,,,,,1000,001,01,2021_Nov_02_1101,task-switching-replication,2021.2.3,59.82794649823624,
1,36,experiment,01,standing,switch,congruant,dashed,square,blue,stimuli/dashed-rectangle.png,stimuli/blue-square.png,2,,,,,,,,,,,,,,,,,,,,,,,,,0,0,0,0,0,0,0,0,0,35,35,35,,,,,,,,,,,,,,,,,,,,,,,,,,,,,,,,,,,,,,,,,,,,,,,,,,,,,,,,,,,,,,,,,,,,,,,,445.85186195373535,None,,,,,,,,,,,,,,,,,,,,,,,,,,,,,,,,,,,,,,,,,,,,,,,,,,,,,,,,,1000,001,01,2021_Nov_02_1101,task-switching-replication,2021.2.3,59.82794649823624,
1,37,experiment,01,standing,switch,incongruant,solid,triangle,blue,stimuli/solid-rectangle.png,stimuli/blue-triangle.png,1,,,,,,,,,,,,,,,,,,,,,,,,,0,0,0,0,0,0,0,0,0,36,36,36,,,,,,,,,,,,,,,,,,,,,,,,,,,,,,,,,,,,,,,,,,,,,,,,,,,,,,,,,,,,,,,,,,,,,,,,448.0549829006195,None,,,,,,,,,,,,,,,,,,,,,,,,,,,,,,,,,,,,,,,,,,446.04808497428894,None,447.0320611000061,None,1,1,0.9039349555969238,447.0320611000061,None,,,,,,,1000,001,01,2021_Nov_02_1101,task-switching-replication,2021.2.3,59.82794649823624,
1,38,experiment,01,standing,noswitch,congruant,solid,triangle,blue,stimuli/solid-rectangle.png,stimuli/blue-triangle.png,1,,,,,,,,,,,,,,,,,,,,,,,,,0,0,0,0,0,0,0,0,0,37,37,37,,,,,,,,,,,,,,,,,,,,,,,,,,,,,,,,,,,,,,,,,,,,,,,,,,,,,,,,,,,,,,,,,,,,,,,,449.87826204299927,None,,,,,,,,,,,,,,,,,,,,,,,,,,,,,,,,,,,,,,,,,,448.2840929031372,None,449.2685959339142,None,1,1,0.5094611644744873,449.2685959339142,None,,,,,,,1000,001,01,2021_Nov_02_1101,task-switching-replication,2021.2.3,59.82794649823624,
1,39,experiment,01,standing,noswitch,congruant,solid,triangle,blue,stimuli/solid-rectangle.png,stimuli/blue-triangle.png,1,,,,,,,,,,,,,,,,,,,,,,,,,0,0,0,0,0,0,0,0,0,38,38,38,,,,,,,,,,,,,,,,,,,,,,,,,,,,,,,,,,,,,,,,,,,,,,,,,,,,,,,,,,,,,,,,,,,,,,,,451.6418890953064,None,,,,,,,,,,,,,,,,,,,,,,,,,,,,,,,,,,,,,,,,,,450.10720205307007,None,451.0913610458374,None,1,1,0.42977094650268555,451.0913610458374,None,,,,,,,1000,001,01,2021_Nov_02_1101,task-switching-replication,2021.2.3,59.82794649823624,
1,40,experiment,01,standing,noswitch,congruant,solid,square,blue,stimuli/solid-rectangle.png,stimuli/blue-square.png,1,,,,,,,,,,,,,,,,,,,,,,,,,0,0,0,0,0,0,0,0,0,39,39,39,,,,,,,,,,,,,,,,,,,,,,,,,,,,,,,,,,,,,,,,,,,,,,,,,,,,,,,,,,,,,,,,,,,,,,,,453.70157408714294,None,,,,,,,,,,,,,,,,,,,,,,,,,,,,,,,,,,,,,,,,,,451.87094497680664,None,452.8557369709015,None,1,1,0.7351930141448975,452.8557369709015,None,,,,,,,1000,001,01,2021_Nov_02_1101,task-switching-replication,2021.2.3,59.82794649823624,
1,41,experiment,01,standing,noswitch,congruant,solid,triangle,blue,stimuli/solid-rectangle.png,stimuli/blue-triangle.png,1,,,,,,,,,,,,,,,,,,,,,,,,,0,0,0,0,0,0,0,0,0,40,40,40,,,,,,,,,,,,,,,,,,,,,,,,,,,,,,,,,,,,,,,,,,,,,,,,,,,,,,,,,,,,,,,,,,,,,,,,455.5253620147705,None,,,,,,,,,,,,,,,,,,,,,,,,,,,,,,,,,,,,,,,,,,453.93052101135254,None,454.91572403907776,None,1,1,0.48232197761535645,454.91572403907776,None,,,,,,,1000,001,01,2021_Nov_02_1101,task-switching-replication,2021.2.3,59.82794649823624,
1,42,experiment,01,standing,switch,congruant,dashed,triangle,yellow,stimuli/dashed-rectangle.png,stimuli/yellow-triangle.png,1,,,,,,,,,,,,,,,,,,,,,,,,,0,0,0,0,0,0,0,0,0,41,41,41,,,,,,,,,,,,,,,,,,,,,,,,,,,,,,,,,,,,,,,,,,,,,,,,,,,,,,,,,,,,,,,,,,,,,,,,457.525053024292,None,,,,,,,,,,,,,,,,,,,,,,,,,,,,,,,,,,,,,,,,,,455.75406408309937,None,456.73884201049805,None,1,1,0.6830339431762695,456.73884201049805,None,,,,,,,1000,001,01,2021_Nov_02_1101,task-switching-replication,2021.2.3,59.82794649823624,
1,43,experiment,01,standing,noswitch,congruant,dashed,triangle,blue,stimuli/dashed-rectangle.png,stimuli/blue-triangle.png,1,,,,,,,,,,,,,,,,,,,,,,,,,0,0,0,0,0,0,0,0,0,42,42,42,,,,,,,,,,,,,,,,,,,,,,,,,,,,,,,,,,,,,,,,,,,,,,,,,,,,,,,,,,,,,,,,,,,,,,,,459.9952030181885,None,,,,,,,,,,,,,,,,,,,,,,,,,,,,,,,,,,,,,,,,,,457.7539439201355,None,458.73712611198425,None,1,1,1.1099040508270264,458.73712611198425,None,,,,,,,1000,001,01,2021_Nov_02_1101,task-switching-replication,2021.2.3,59.82794649823624,
1,44,experiment,01,standing,noswitch,incongruant,dashed,square,yellow,stimuli/dashed-rectangle.png,stimuli/yellow-square.png,2,,,,,,,,,,,,,,,,,,,,,,,,,0,0,0,0,0,0,0,0,0,43,43,43,,,,,,,,,,,,,,,,,,,,,,,,,,,,,,,,,,,,,,,,,,,,,,,,,,,,,,,,,,,,,,,,,,,,,,,,461.9365360736847,None,,,,,,,,,,,,,,,,,,,,,,,,,,,,,,,,,,,,,,,,,,460.2237958908081,None,461.2074189186096,None,2,1,0.6000430583953857,461.2074189186096,None,,,,,,,1000,001,01,2021_Nov_02_1101,task-switching-replication,2021.2.3,59.82794649823624,
1,45,experiment,01,standing,noswitch,congruant,dashed,square,yellow,stimuli/dashed-rectangle.png,stimuli/yellow-square.png,2,,,,,,,,,,,,,,,,,,,,,,,,,0,0,0,0,0,0,0,0,0,44,44,44,,,,,,,,,,,,,,,,,,,,,,,,,,,,,,,,,,,,,,,,,,,,,,,,,,,,,,,,,,,,,,,,,,,,,,,,463.81860399246216,None,,,,,,,,,,,,,,,,,,,,,,,,,,,,,,,,,,,,,,,,,,462.1652009487152,None,463.1495690345764,None,2,1,0.5605199337005615,463.1495690345764,None,,,,,,,1000,001,01,2021_Nov_02_1101,task-switching-replication,2021.2.3,59.82794649823624,
1,46,experiment,01,standing,switch,congruant,solid,triangle,yellow,stimuli/solid-rectangle.png,stimuli/yellow-triangle.png,2,,,,,,,,,,,,,,,,,,,,,,,,,0,0,0,0,0,0,0,0,0,45,45,45,,,,,,,,,,,,,,,,,,,,,,,,,,,,,,,,,,,,,,,,,,,,,,,,,,,,,,,,,,,,,,,,,,,,,,,,466.11193895339966,None,,,,,,,,,,,,,,,,,,,,,,,,,,,,,,,,,,,,,,,,,,464.0476861000061,None,465.03079104423523,None,2,1,0.9571537971496582,465.03079104423523,None,,,,,,,1000,001,01,2021_Nov_02_1101,task-switching-replication,2021.2.3,59.82794649823624,
1,47,experiment,01,standing,switch,congruant,dashed,square,blue,stimuli/dashed-rectangle.png,stimuli/blue-square.png,2,,,,,,,,,,,,,,,,,,,,,,,,,0,0,0,0,0,0,0,0,0,46,46,46,,,,,0,0,0,0,,,,,,,,,,,,,,,,,,,,,,,,,,,,,,,,,,,,,,,,,,,,,,,,,,,,,,,,,,,,,,,,,,,,,,467.965803027153,469.01805090904236,467.99908208847046,None,,,,,,,,,,,,,,,,,,,,,,,,,,,,,,,,,,466.34125804901123,None,467.32544589042664,None,1,0,0.5686438083648682,467.32544589042664,None,,,,,,,1000,001,01,2021_Nov_02_1101,task-switching-replication,2021.2.3,59.82794649823624,
1,47,experiment,01,standing,switch,congruant,dashed,square,blue,stimuli/dashed-rectangle.png,stimuli/blue-square.png,2,,,,,,,,,,,,,,,,,,,,,,,,,0,0,0,0,0,0,0,0,0,46,46,46,,,,,,,,,,,,,,,,,,,,,,,,,,,,,,,,,,,,,,,,,,,,,,,,,,,,,,,,,,,,,,,,,,,,,,,,473.02245593070984,None,,,,,,,,,,,,,,,,,,,,,,,,,,,,,,,,,,,,,,,,,,,,,,,,,,,,,,,,,1000,001,01,2021_Nov_02_1101,task-switching-replication,2021.2.3,59.82794649823624,
1,48,experiment,01,standing,noswitch,incongruant,dashed,triangle,blue,stimuli/dashed-rectangle.png,stimuli/blue-triangle.png,1,,,,,,,,,,,,,,,,,,,,,,,,,0,0,0,0,0,0,0,0,0,47,47,47,,,,,,,,,,,,,,,,,,,,,,,,,,,,,,,,,,,,,,,,,,,,,,,,,,,,,,,,,,,,,,,,,,,,,,,,475.10851311683655,None,,,,,,,,,,,,,,,,,,,,,,,,,,,,,,,,,,,,,,,,,,473.21898102760315,None,474.2038640975952,None,1,1,0.7948517799377441,474.2038640975952,None,,,,,,,1000,001,01,2021_Nov_02_1101,task-switching-replication,2021.2.3,59.82794649823624,
1,49,experiment,01,standing,switch,incongruant,solid,triangle,yellow,stimuli/solid-rectangle.png,stimuli/yellow-triangle.png,2,,,,,,,,,,,,,,,,,,,,,,,,,0,0,0,0,0,0,0,0,0,48,48,48,,,,,,,,,,,,,,,,,,,,,,,,,,,,,,,,,,,,,,,,,,,,,,,,,,,,,,,,,,,,,,,,,,,,,,,,477.63639307022095,None,,,,,,,,,,,,,,,,,,,,,,,,,,,,,,,,,,,,,,,,,,475.3368890285492,None,476.3198289871216,None,2,1,1.2062950134277344,476.3198289871216,None,,,,,,,1000,001,01,2021_Nov_02_1101,task-switching-replication,2021.2.3,59.82794649823624,
,,,01,,,,,,,,,,,,,,,,,,,,,,,,,,,,,,,,,,0,0,0,0,0,0,0,0,,,,,,,,,,,,,,,,,,,,,,,,,,,,,,,,,,,,,,,,,,,,,,,,,,,,,,,,,,,,,,,,,,,,,,,,,,,,,,,,,,,,,,,,,,,,,,,,,,,,,,,,,,,,,,,,,,,,,,,,,,,,,,,,,,,,,,1000,001,01,2021_Nov_02_1101,task-switching-replication,2021.2.3,59.82794649823624,
2,1,experiment,01,standing,buffer,buffer,dashed,triangle,blue,stimuli/dashed-rectangle.png,stimuli/blue-triangle.png,1,,,,,,,,,,,,,,,,,,,,,,,,,0,0,0,0,1,0,1,0,0,0,0,0,,,,,,,,,,,,,,,,,,,,,,,,,,,,,,,,,,,,,,,,,,,,,,,,,,,,,,,,,,,,,,,,,,,,,,,,525.1827259063721,None,,,,,,,,,,,,,,,,,,,,,,,,,,,,,,477.86601305007935,None,1,39.26812815666199,477.86601305007935,None,517.2479889392853,None,1,5.9902849197387695,517.2479889392853,None,523.4102730751038,None,524.3950469493866,None,1,1,0.6697909832000732,524.3950469493866,None,,,,,,,1000,001,01,2021_Nov_02_1101,task-switching-replication,2021.2.3,59.82794649823624,
2,2,experiment,01,standing,switch,incongruant,solid,triangle,yellow,stimuli/solid-rectangle.png,stimuli/yellow-triangle.png,2,,,,,,,,,,,,,,,,,,,,,,,,,0,0,0,0,1,0,1,0,0,1,1,1,,,,,,,,,,,,,,,,,,,,,,,,,,,,,,,,,,,,,,,,,,,,,,,,,,,,,,,,,,,,,,,,,,,,,,,,527.4231309890747,None,,,,,,,,,,,,,,,,,,,,,,,,,,,,,,,,,,,,,,,,,,525.4116270542145,None,526.3960270881653,None,2,1,0.8981339931488037,526.3960270881653,None,,,,,,,1000,001,01,2021_Nov_02_1101,task-switching-replication,2021.2.3,59.82794649823624,
2,3,experiment,01,standing,noswitch,incongruant,solid,square,blue,stimuli/solid-rectangle.png,stimuli/blue-square.png,1,,,,,,,,,,,,,,,,,,,,,,,,,0,0,0,0,1,0,1,0,0,2,2,2,,,,,,,,,,,,,,,,,,,,,,,,,,,,,,,,,,,,,,,,,,,,,,,,,,,,,,,,,,,,,,,,,,,,,,,,529.7812530994415,None,,,,,,,,,,,,,,,,,,,,,,,,,,,,,,,,,,,,,,,,,,527.6520519256592,None,528.636992931366,None,1,1,0.9962460994720459,528.636992931366,None,,,,,,,1000,001,01,2021_Nov_02_1101,task-switching-replication,2021.2.3,59.82794649823624,
2,4,experiment,01,standing,noswitch,congruant,solid,square,blue,stimuli/solid-rectangle.png,stimuli/blue-square.png,1,,,,,,,,,,,,,,,,,,,,,,,,,0,0,0,0,1,0,1,0,0,3,3,3,,,,,,,,,,,,,,,,,,,,,,,,,,,,,,,,,,,,,,,,,,,,,,,,,,,,,,,,,,,,,,,,,,,,,,,,531.7815709114075,None,,,,,,,,,,,,,,,,,,,,,,,,,,,,,,,,,,,,,,,,,,530.010260105133,None,530.994705915451,None,1,1,0.6354999542236328,530.994705915451,None,,,,,,,1000,001,01,2021_Nov_02_1101,task-switching-replication,2021.2.3,59.82794649823624,
2,5,experiment,01,standing,switch,incongruant,dashed,square,yellow,stimuli/dashed-rectangle.png,stimuli/yellow-square.png,2,,,,,,,,,,,,,,,,,,,,,,,,,0,0,0,0,1,0,1,0,0,4,4,4,,,,,,,,,,,,,,,,,,,,,,,,,,,,,,,,,,,,,,,,,,,,,,,,,,,,,,,,,,,,,,,,,,,,,,,,533.6035709381104,None,,,,,,,,,,,,,,,,,,,,,,,,,,,,,,,,,,,,,,,,,,532.0102469921112,None,532.9946370124817,None,2,1,0.5125319957733154,532.9946370124817,None,,,,,,,1000,001,01,2021_Nov_02_1101,task-switching-replication,2021.2.3,59.82794649823624,
2,6,experiment,01,standing,switch,incongruant,solid,square,blue,stimuli/solid-rectangle.png,stimuli/blue-square.png,1,,,,,,,,,,,,,,,,,,,,,,,,,0,0,0,0,1,0,1,0,0,5,5,5,,,,,,,,,,,,,,,,,,,,,,,,,,,,,,,,,,,,,,,,,,,,,,,,,,,,,,,,,,,,,,,,,,,,,,,,535.9586660861969,None,,,,,,,,,,,,,,,,,,,,,,,,,,,,,,,,,,,,,,,,,,533.8320479393005,None,534.8150858879089,None,1,1,1.0149390697479248,534.8150858879089,None,,,,,,,1000,001,01,2021_Nov_02_1101,task-switching-replication,2021.2.3,59.82794649823624,
2,7,experiment,01,standing,switch,incongruant,dashed,square,blue,stimuli/dashed-rectangle.png,stimuli/blue-square.png,2,,,,,,,,,,,,,,,,,,,,,,,,,0,0,0,0,1,0,1,0,0,6,6,6,,,,,0,0,0,0,,,,,,,,,,,,,,,,,,,,,,,,,,,,,,,,,,,,,,,,,,,,,,,,,,,,,,,,,,,,,,,,,,,,,,537.8705660104752,538.9228019714355,537.9039380550385,None,,,,,,,,,,,,,,,,,,,,,,,,,,,,,,,,,,536.1873700618744,None,537.1710710525513,None,1,0,0.6090497970581055,537.1710710525513,None,,,,,,,1000,001,01,2021_Nov_02_1101,task-switching-replication,2021.2.3,59.82794649823624,
2,7,experiment,01,standing,switch,incongruant,dashed,square,blue,stimuli/dashed-rectangle.png,stimuli/blue-square.png,2,,,,,,,,,,,,,,,,,,,,,,,,,0,0,0,0,1,0,1,0,0,6,6,6,,,,,,,,,,,,,,,,,,,,,,,,,,,,,,,,,,,,,,,,,,,,,,,,,,,,,,,,,,,,,,,,,,,,,,,,542.929435968399,None,,,,,,,,,,,,,,,,,,,,,,,,,,,,,,,,,,,,,,,,,,,,,,,,,,,,,,,,,1000,001,01,2021_Nov_02_1101,task-switching-replication,2021.2.3,59.82794649823624,
2,8,experiment,01,standing,noswitch,congruant,dashed,square,blue,stimuli/dashed-rectangle.png,stimuli/blue-square.png,2,,,,,,,,,,,,,,,,,,,,,,,,,0,0,0,0,1,0,1,0,0,7,7,7,,,,,0,0,0,0,,,,,,,,,,,,,,,,,,,,,,,,,,,,,,,,,,,,,,,,,,,,,,,,,,,,,,,,,,,,,,,,,,,,,,544.869511961937,545.888011932373,544.9027829170227,None,,,,,,,,,,,,,,,,,,,,,,,,,,,,,,,,,,543.1260828971863,None,544.1108520030975,None,1,0,0.6502020359039307,544.1108520030975,None,,,,,,,1000,001,01,2021_Nov_02_1101,task-switching-replication,2021.2.3,59.82794649823624,
2,8,experiment,01,standing,noswitch,congruant,dashed,square,blue,stimuli/dashed-rectangle.png,stimuli/blue-square.png,2,,,,,,,,,,,,,,,,,,,,,,,,,0,0,0,0,1,0,1,0,0,7,7,7,,,,,,,,,,,,,,,,,,,,,,,,,,,,,,,,,,,,,,,,,,,,,,,,,,,,,,,,,,,,,,,,,,,,,,,,549.9302809238434,None,,,,,,,,,,,,,,,,,,,,,,,,,,,,,,,,,,,,,,,,,,,,,,,,,,,,,,,,,1000,001,01,2021_Nov_02_1101,task-switching-replication,2021.2.3,59.82794649823624,
2,9,experiment,01,standing,noswitch,incongruant,dashed,triangle,yellow,stimuli/dashed-rectangle.png,stimuli/yellow-triangle.png,1,,,,,,,,,,,,,,,,,,,,,,,,,0,0,0,0,1,0,1,0,0,8,8,8,,,,,,,,,,,,,,,,,,,,,,,,,,,,,,,,,,,,,,,,,,,,,,,,,,,,,,,,,,,,,,,,,,,,,,,,551.8983769416809,None,,,,,,,,,,,,,,,,,,,,,,,,,,,,,,,,,,,,,,,,,,550.1265919208527,None,551.1115350723267,None,1,1,0.6484248638153076,551.1115350723267,None,,,,,,,1000,001,01,2021_Nov_02_1101,task-switching-replication,2021.2.3,59.82794649823624,
2,10,experiment,01,standing,switch,incongruant,solid,square,yellow,stimuli/solid-rectangle.png,stimuli/yellow-square.png,2,,,,,,,,,,,,,,,,,,,,,,,,,0,0,0,0,1,0,1,0,0,9,9,9,,,,,,,,,,,,,,,,,,,,,,,,,,,,,,,,,,,,,,,,,,,,,,,,,,,,,,,,,,,,,,,,,,,,,,,,553.8403420448303,None,,,,,,,,,,,,,,,,,,,,,,,,,,,,,,,,,,,,,,,,,,552.1274058818817,None,553.1123819351196,None,2,1,0.618527889251709,553.1123819351196,None,,,,,,,1000,001,01,2021_Nov_02_1101,task-switching-replication,2021.2.3,59.82794649823624,
2,11,experiment,01,standing,switch,incongruant,dashed,triangle,yellow,stimuli/dashed-rectangle.png,stimuli/yellow-triangle.png,1,,,,,,,,,,,,,,,,,,,,,,,,,0,0,0,0,1,0,1,0,0,10,10,10,,,,,,,,,,,,,,,,,,,,,,,,,,,,,,,,,,,,,,,,,,,,,,,,,,,,,,,,,,,,,,,,,,,,,,,,556.1940829753876,None,,,,,,,,,,,,,,,,,,,,,,,,,,,,,,,,,,,,,,,,,,554.0689630508423,None,555.053435087204,None,1,1,1.0173230171203613,555.053435087204,None,,,,,,,1000,001,01,2021_Nov_02_1101,task-switching-replication,2021.2.3,59.82794649823624,
2,12,experiment,01,standing,switch,incongruant,solid,triangle,yellow,stimuli/solid-rectangle.png,stimuli/yellow-triangle.png,2,,,,,,,,,,,,,,,,,,,,,,,,,0,0,0,0,1,0,1,0,0,11,11,11,,,,,,,,,,,,,,,,,,,,,,,,,,,,,,,,,,,,,,,,,,,,,,,,,,,,,,,,,,,,,,,,,,,,,,,,558.4890658855438,None,,,,,,,,,,,,,,,,,,,,,,,,,,,,,,,,,,,,,,,,,,556.4227960109711,None,557.4074850082397,None,2,1,0.9757058620452881,557.4074850082397,None,,,,,,,1000,001,01,2021_Nov_02_1101,task-switching-replication,2021.2.3,59.82794649823624,
2,13,experiment,01,standing,noswitch,congruant,solid,square,yellow,stimuli/solid-rectangle.png,stimuli/yellow-square.png,2,,,,,,,,,,,,,,,,,,,,,,,,,0,0,0,0,1,0,1,0,0,12,12,12,,,,,,,,,,,,,,,,,,,,,,,,,,,,,,,,,,,,,,,,,,,,,,,,,,,,,,,,,,,,,,,,,,,,,,,,560.9603009223938,None,,,,,,,,,,,,,,,,,,,,,,,,,,,,,,,,,,,,,,,,,,558.7175390720367,None,559.7016050815582,None,2,1,1.162451982498169,559.7016050815582,None,,,,,,,1000,001,01,2021_Nov_02_1101,task-switching-replication,2021.2.3,59.82794649823624,
2,14,experiment,01,standing,switch,congruant,dashed,square,yellow,stimuli/dashed-rectangle.png,stimuli/yellow-square.png,2,,,,,,,,,,,,,,,,,,,,,,,,,0,0,0,0,1,0,1,0,0,13,13,13,,,,,0,0,0,0,,,,,,,,,,,,,,,,,,,,,,,,,,,,,,,,,,,,,,,,,,,,,,,,,,,,,,,,,,,,,,,,,,,,,,563.706531238556,564.7570269107819,563.7383089065552,None,,,,,,,,,,,,,,,,,,,,,,,,,,,,,,,,,,561.1889979839325,None,562.1722450256348,None,None,0,,562.1722450256348,None,,,,,,,1000,001,01,2021_Nov_02_1101,task-switching-replication,2021.2.3,59.82794649823624,
2,14,experiment,01,standing,switch,congruant,dashed,square,yellow,stimuli/dashed-rectangle.png,stimuli/yellow-square.png,2,,,,,,,,,,,,,,,,,,,,,,,,,0,0,0,0,1,0,1,0,0,13,13,13,,,,,,,,,,,,,,,,,,,,,,,,,,,,,,,,,,,,,,,,,,,,,,,,,,,,,,,,,,,,,,,,,,,,,,,,568.7608420848846,None,,,,,,,,,,,,,,,,,,,,,,,,,,,,,,,,,,,,,,,,,,,,,,,,,,,,,,,,,1000,001,01,2021_Nov_02_1101,task-switching-replication,2021.2.3,59.82794649823624,
2,15,experiment,01,standing,switch,incongruant,solid,triangle,blue,stimuli/solid-rectangle.png,stimuli/blue-triangle.png,1,,,,,,,,,,,,,,,,,,,,,,,,,0,0,0,0,1,0,1,0,0,14,14,14,0,0,0,0,,,,,,,,,,,,,,,,,,,,,,,,,,,,,,,,,,,,,,,,,,,,,,,,,,,,,,,,,,,,,,,,,,,,,,571.4755122184754,572.4957160949707,571.5065519809723,None,,,,,,,,,,,,,,,,,,,,,,,,,,,,,,,,,,,,,,568.957503080368,None,569.9409070014954,None,None,0,,569.9409070014954,None,,,,,,,1000,001,01,2021_Nov_02_1101,task-switching-replication,2021.2.3,59.82794649823624,
2,15,experiment,01,standing,switch,incongruant,solid,triangle,blue,stimuli/solid-rectangle.png,stimuli/blue-triangle.png,1,,,,,,,,,,,,,,,,,,,,,,,,,0,0,0,0,1,0,1,0,0,14,14,14,,,,,,,,,,,,,,,,,,,,,,,,,,,,,,,,,,,,,,,,,,,,,,,,,,,,,,,,,,,,,,,,,,,,,,,,576.5347158908844,None,,,,,,,,,,,,,,,,,,,,,,,,,,,,,,,,,,,,,,,,,,,,,,,,,,,,,,,,,1000,001,01,2021_Nov_02_1101,task-switching-replication,2021.2.3,59.82794649823624,
2,16,experiment,01,standing,noswitch,incongruant,solid,square,yellow,stimuli/solid-rectangle.png,stimuli/yellow-square.png,2,,,,,,,,,,,,,,,,,,,,,,,,,0,0,0,0,1,0,1,0,0,15,15,15,,,,,,,,,,,,,,,,,,,,,,,,,,,,,,,,,,,,,,,,,,,,,,,,,,,,,,,,,,,,,,,,,,,,,,,,578.5586469173431,None,,,,,,,,,,,,,,,,,,,,,,,,,,,,,,,,,,,,,,,,,,576.7312209606171,None,577.7142000198364,None,2,1,0.74788498878479,577.7142000198364,None,,,,,,,1000,001,01,2021_Nov_02_1101,task-switching-replication,2021.2.3,59.82794649823624,
2,17,experiment,01,standing,noswitch,congruant,solid,triangle,yellow,stimuli/solid-rectangle.png,stimuli/yellow-triangle.png,2,,,,,,,,,,,,,,,,,,,,,,,,,0,0,0,0,1,0,1,0,0,16,16,16,,,,,,,,,,,,,,,,,,,,,,,,,,,,,,,,,,,,,,,,,,,,,,,,,,,,,,,,,,,,,,,,,,,,,,,,580.3811550140381,None,,,,,,,,,,,,,,,,,,,,,,,,,,,,,,,,,,,,,,,,,,578.787239074707,None,579.7714440822601,None,2,1,0.5103788375854492,579.7714440822601,None,,,,,,,1000,001,01,2021_Nov_02_1101,task-switching-replication,2021.2.3,59.82794649823624,
2,18,experiment,01,standing,switch,congruant,dashed,square,yellow,stimuli/dashed-rectangle.png,stimuli/yellow-square.png,2,,,,,,,,,,,,,,,,,,,,,,,,,0,0,0,0,1,0,1,0,0,17,17,17,,,,,,,,,,,,,,,,,,,,,,,,,,,,,,,,,,,,,,,,,,,,,,,,,,,,,,,,,,,,,,,,,,,,,,,,582.146222114563,None,,,,,,,,,,,,,,,,,,,,,,,,,,,,,,,,,,,,,,,,,,580.6102020740509,None,581.5948851108551,None,2,1,0.42395806312561035,581.5948851108551,None,,,,,,,1000,001,01,2021_Nov_02_1101,task-switching-replication,2021.2.3,59.82794649823624,
2,19,experiment,01,standing,noswitch,incongruant,dashed,triangle,yellow,stimuli/dashed-rectangle.png,stimuli/yellow-triangle.png,1,,,,,,,,,,,,,,,,,,,,,,,,,0,0,0,0,1,0,1,0,0,18,18,18,,,,,0,0,0,0,,,,,,,,,,,,,,,,,,,,,,,,,,,,,,,,,,,,,,,,,,,,,,,,,,,,,,,,,,,,,,,,,,,,,,584.2928520441055,585.34459400177,584.3262829780579,None,,,,,,,,,,,,,,,,,,,,,,,,,,,,,,,,,,582.3745279312134,None,583.3577530384064,None,2,0,0.8440079689025879,583.3577530384064,None,,,,,,,1000,001,01,2021_Nov_02_1101,task-switching-replication,2021.2.3,59.82794649823624,
2,19,experiment,01,standing,noswitch,incongruant,dashed,triangle,yellow,stimuli/dashed-rectangle.png,stimuli/yellow-triangle.png,1,,,,,,,,,,,,,,,,,,,,,,,,,0,0,0,0,1,0,1,0,0,18,18,18,,,,,,,,,,,,,,,,,,,,,,,,,,,,,,,,,,,,,,,,,,,,,,,,,,,,,,,,,,,,,,,,,,,,,,,,589.3447709083557,None,,,,,,,,,,,,,,,,,,,,,,,,,,,,,,,,,,,,,,,,,,,,,,,,,,,,,,,,,1000,001,01,2021_Nov_02_1101,task-switching-replication,2021.2.3,59.82794649823624,
2,20,experiment,01,standing,noswitch,congruant,dashed,triangle,blue,stimuli/dashed-rectangle.png,stimuli/blue-triangle.png,1,,,,,,,,,,,,,,,,,,,,,,,,,0,0,0,0,1,0,1,0,0,19,19,19,,,,,,,,,,,,,,,,,,,,,,,,,,,,,,,,,,,,,,,,,,,,,,,,,,,,,,,,,,,,,,,,,,,,,,,,591.4872291088104,None,,,,,,,,,,,,,,,,,,,,,,,,,,,,,,,,,,,,,,,,,,589.5410470962524,None,590.5242838859558,None,1,1,0.8706870079040527,590.5242838859558,None,,,,,,,1000,001,01,2021_Nov_02_1101,task-switching-replication,2021.2.3,59.82794649823624,
2,21,experiment,01,standing,noswitch,incongruant,dashed,square,blue,stimuli/dashed-rectangle.png,stimuli/blue-square.png,2,,,,,,,,,,,,,,,,,,,,,,,,,0,0,0,0,1,0,1,0,0,20,20,20,,,,,0,0,0,0,,,,,,,,,,,,,,,,,,,,,,,,,,,,,,,,,,,,,,,,,,,,,,,,,,,,,,,,,,,,,,,,,,,,,,593.5185829401016,594.5369610786438,593.5520510673523,None,,,,,,,,,,,,,,,,,,,,,,,,,,,,,,,,,,591.7161350250244,None,592.700649023056,None,1,0,0.7029280662536621,592.700649023056,None,,,,,,,1000,001,01,2021_Nov_02_1101,task-switching-replication,2021.2.3,59.82794649823624,
2,21,experiment,01,standing,noswitch,incongruant,dashed,square,blue,stimuli/dashed-rectangle.png,stimuli/blue-square.png,2,,,,,,,,,,,,,,,,,,,,,,,,,0,0,0,0,1,0,1,0,0,20,20,20,,,,,,,,,,,,,,,,,,,,,,,,,,,,,,,,,,,,,,,,,,,,,,,,,,,,,,,,,,,,,,,,,,,,,,,,598.5745038986206,None,,,,,,,,,,,,,,,,,,,,,,,,,,,,,,,,,,,,,,,,,,,,,,,,,,,,,,,,,1000,001,01,2021_Nov_02_1101,task-switching-replication,2021.2.3,59.82794649823624,
2,22,experiment,01,standing,noswitch,congruant,dashed,square,yellow,stimuli/dashed-rectangle.png,stimuli/yellow-square.png,2,,,,,,,,,,,,,,,,,,,,,,,,,0,0,0,0,1,0,1,0,0,21,21,21,,,,,,,,,,,,,,,,,,,,,,,,,,,,,,,,,,,,,,,,,,,,,,,,,,,,,,,,,,,,,,,,,,,,,,,,600.3054540157318,None,,,,,,,,,,,,,,,,,,,,,,,,,,,,,,,,,,,,,,,,,,598.7711639404297,None,599.755213022232,None,2,1,0.4465789794921875,599.755213022232,None,,,,,,,1000,001,01,2021_Nov_02_1101,task-switching-replication,2021.2.3,59.82794649823624,
2,23,experiment,01,standing,noswitch,incongruant,dashed,triangle,blue,stimuli/dashed-rectangle.png,stimuli/blue-triangle.png,1,,,,,,,,,,,,,,,,,,,,,,,,,0,0,0,0,1,0,1,0,0,22,22,22,,,,,0,0,0,0,,,,,,,,,,,,,,,,,,,,,,,,,,,,,,,,,,,,,,,,,,,,,,,,,,,,,,,,,,,,,,,,,,,,,,602.3330179452896,603.3836829662323,602.3652648925781,None,,,,,,,,,,,,,,,,,,,,,,,,,,,,,,,,,,600.5339798927307,None,601.5171821117401,None,2,0,0.7163949012756348,601.5171821117401,None,,,,,,,1000,001,01,2021_Nov_02_1101,task-switching-replication,2021.2.3,59.82794649823624,
2,23,experiment,01,standing,noswitch,incongruant,dashed,triangle,blue,stimuli/dashed-rectangle.png,stimuli/blue-triangle.png,1,,,,,,,,,,,,,,,,,,,,,,,,,0,0,0,0,1,0,1,0,0,22,22,22,,,,,,,,,,,,,,,,,,,,,,,,,,,,,,,,,,,,,,,,,,,,,,,,,,,,,,,,,,,,,,,,,,,,,,,,607.3860559463501,None,,,,,,,,,,,,,,,,,,,,,,,,,,,,,,,,,,,,,,,,,,,,,,,,,,,,,,,,,1000,001,01,2021_Nov_02_1101,task-switching-replication,2021.2.3,59.82794649823624,
2,24,experiment,01,standing,noswitch,congruant,dashed,triangle,blue,stimuli/dashed-rectangle.png,stimuli/blue-triangle.png,1,,,,,,,,,,,,,,,,,,,,,,,,,0,0,0,0,1,0,1,0,0,23,23,23,,,,,,,,,,,,,,,,,,,,,,,,,,,,,,,,,,,,,,,,,,,,,,,,,,,,,,,,,,,,,,,,,,,,,,,,609.3574209213257,None,,,,,,,,,,,,,,,,,,,,,,,,,,,,,,,,,,,,,,,,,,607.5825629234314,None,608.5669920444489,None,1,1,0.6668038368225098,608.5669920444489,None,,,,,,,1000,001,01,2021_Nov_02_1101,task-switching-replication,2021.2.3,59.82794649823624,
2,25,experiment,01,standing,switch,incongruant,solid,triangle,yellow,stimuli/solid-rectangle.png,stimuli/yellow-triangle.png,2,,,,,,,,,,,,,,,,,,,,,,,,,0,0,0,0,1,0,1,0,0,24,24,24,,,,,,,,,,,,,,,,,,,,,,,,,,,,,,,,,,,,,,,,,,,,,,,,,,,,,,,,,,,,,,,,,,,,,,,,611.474396944046,None,,,,,,,,,,,,,,,,,,,,,,,,,,,,,,,,,,,,,,,,,,609.5861229896545,None,610.5700500011444,None,2,1,0.8029649257659912,610.5700500011444,None,,,,,,,1000,001,01,2021_Nov_02_1101,task-switching-replication,2021.2.3,59.82794649823624,
2,26,experiment,01,standing,noswitch,congruant,solid,square,yellow,stimuli/solid-rectangle.png,stimuli/yellow-square.png,2,,,,,,,,,,,,,,,,,,,,,,,,,0,0,0,0,1,0,1,0,0,25,25,25,,,,,,,,,,,,,,,,,,,,,,,,,,,,,,,,,,,,,,,,,,,,,,,,,,,,,,,,,,,,,,,,,,,,,,,,613.4728190898895,None,,,,,,,,,,,,,,,,,,,,,,,,,,,,,,,,,,,,,,,,,,611.7034869194031,None,612.6865270137787,None,2,1,0.6520309448242188,612.6865270137787,None,,,,,,,1000,001,01,2021_Nov_02_1101,task-switching-replication,2021.2.3,59.82794649823624,
2,27,experiment,01,standing,switch,incongruant,dashed,triangle,yellow,stimuli/dashed-rectangle.png,stimuli/yellow-triangle.png,1,,,,,,,,,,,,,,,,,,,,,,,,,0,0,0,0,1,0,1,0,0,26,26,26,,,,,,,,,,,,,,,,,,,,,,,,,,,,,,,,,,,,,,,,,,,,,,,,,,,,,,,,,,,,,,,,,,,,,,,,615.9473540782928,None,,,,,,,,,,,,,,,,,,,,,,,,,,,,,,,,,,,,,,,,,,613.7011930942535,None,614.6844530105591,None,1,1,1.1292650699615479,614.6844530105591,None,,,,,,,1000,001,01,2021_Nov_02_1101,task-switching-replication,2021.2.3,59.82794649823624,
2,28,experiment,01,standing,switch,congruant,solid,square,blue,stimuli/solid-rectangle.png,stimuli/blue-square.png,1,,,,,,,,,,,,,,,,,,,,,,,,,0,0,0,0,1,0,1,0,0,27,27,27,,,,,,,,,,,,,,,,,,,,,,,,,,,,,,,,,,,,,,,,,,,,,,,,,,,,,,,,,,,,,,,,,,,,,,,,618.124293088913,None,,,,,,,,,,,,,,,,,,,,,,,,,,,,,,,,,,,,,,,,,,616.1763908863068,None,617.1610589027405,None,1,1,0.8242671489715576,617.1610589027405,None,,,,,,,1000,001,01,2021_Nov_02_1101,task-switching-replication,2021.2.3,59.82794649823624,
2,29,experiment,01,standing,noswitch,incongruant,solid,triangle,yellow,stimuli/solid-rectangle.png,stimuli/yellow-triangle.png,2,,,,,,,,,,,,,,,,,,,,,,,,,0,0,0,0,1,0,1,0,0,28,28,28,,,,,,,,,,,,,,,,,,,,,,,,,,,,,,,,,,,,,,,,,,,,,,,,,,,,,,,,,,,,,,,,,,,,,,,,620.2396728992462,None,,,,,,,,,,,,,,,,,,,,,,,,,,,,,,,,,,,,,,,,,,618.3527429103851,None,619.3360021114349,None,2,1,0.7955632209777832,619.3360021114349,None,,,,,,,1000,001,01,2021_Nov_02_1101,task-switching-replication,2021.2.3,59.82794649823624,
2,30,experiment,01,standing,switch,congruant,dashed,square,blue,stimuli/dashed-rectangle.png,stimuli/blue-square.png,2,,,,,,,,,,,,,,,,,,,,,,,,,0,0,0,0,1,0,1,0,0,29,29,29,,,,,,,,,,,,,,,,,,,,,,,,,,,,,,,,,,,,,,,,,,,,,,,,,,,,,,,,,,,,,,,,,,,,,,,,622.5931880474091,None,,,,,,,,,,,,,,,,,,,,,,,,,,,,,,,,,,,,,,,,,,620.4683299064636,None,621.4519701004028,None,2,1,0.9964988231658936,621.4519701004028,None,,,,,,,1000,001,01,2021_Nov_02_1101,task-switching-replication,2021.2.3,59.82794649823624,
2,31,experiment,01,standing,switch,congruant,solid,square,yellow,stimuli/solid-rectangle.png,stimuli/yellow-square.png,2,,,,,,,,,,,,,,,,,,,,,,,,,0,0,0,0,1,0,1,0,0,30,30,30,,,,,,,,,,,,,,,,,,,,,,,,,,,,,,,,,,,,,,,,,,,,,,,,,,,,,,,,,,,,,,,,,,,,,,,,624.947506904602,None,,,,,,,,,,,,,,,,,,,,,,,,,,,,,,,,,,,,,,,,,,622.8220129013062,None,623.806921005249,None,2,1,1.0294570922851562,623.806921005249,None,,,,,,,1000,001,01,2021_Nov_02_1101,task-switching-replication,2021.2.3,59.82794649823624,
2,32,experiment,01,standing,noswitch,incongruant,solid,square,blue,stimuli/solid-rectangle.png,stimuli/blue-square.png,1,,,,,,,,,,,,,,,,,,,,,,,,,0,0,0,0,1,0,1,0,0,31,31,31,,,,,,,,,,,,,,,,,,,,,,,,,,,,,,,,,,,,,,,,,,,,,,,,,,,,,,,,,,,,,,,,,,,,,,,,627.1218769550323,None,,,,,,,,,,,,,,,,,,,,,,,,,,,,,,,,,,,,,,,,,,625.1760239601135,None,626.1592800617218,None,1,1,0.8556759357452393,626.1592800617218,None,,,,,,,1000,001,01,2021_Nov_02_1101,task-switching-replication,2021.2.3,59.82794649823624,
2,33,experiment,01,standing,noswitch,congruant,solid,triangle,blue,stimuli/solid-rectangle.png,stimuli/blue-triangle.png,1,,,,,,,,,,,,,,,,,,,,,,,,,0,0,0,0,1,0,1,0,0,32,32,32,,,,,,,,,,,,,,,,,,,,,,,,,,,,,,,,,,,,,,,,,,,,,,,,,,,,,,,,,,,,,,,,,,,,,,,,629.1204180717468,None,,,,,,,,,,,,,,,,,,,,,,,,,,,,,,,,,,,,,,,,,,627.3506639003754,None,628.333930015564,None,1,1,0.6622910499572754,628.333930015564,None,,,,,,,1000,001,01,2021_Nov_02_1101,task-switching-replication,2021.2.3,59.82794649823624,
2,34,experiment,01,standing,switch,congruant,dashed,triangle,blue,stimuli/dashed-rectangle.png,stimuli/blue-triangle.png,1,,,,,,,,,,,,,,,,,,,,,,,,,0,0,0,0,1,0,1,0,0,33,33,33,,,,,,,,,,,,,,,,,,,,,,,,,,,,,,,,,,,,,,,,,,,,,,,,,,,,,,,,,,,,,,,,,,,,,,,,631.2375099658966,None,,,,,,,,,,,,,,,,,,,,,,,,,,,,,,,,,,,,,,,,,,629.3489089012146,None,630.3325340747833,None,1,1,0.7628118991851807,630.3325340747833,None,,,,,,,1000,001,01,2021_Nov_02_1101,task-switching-replication,2021.2.3,59.82794649823624,
2,35,experiment,01,standing,switch,incongruant,solid,square,yellow,stimuli/solid-rectangle.png,stimuli/yellow-square.png,2,,,,,,,,,,,,,,,,,,,,,,,,,0,0,0,0,1,0,1,0,0,34,34,34,,,,,,,,,,,,,,,,,,,,,,,,,,,,,,,,,,,,,,,,,,,,,,,,,,,,,,,,,,,,,,,,,,,,,,,,633.1777310371399,None,,,,,,,,,,,,,,,,,,,,,,,,,,,,,,,,,,,,,,,,,,631.4661250114441,None,632.4508059024811,None,2,1,0.5937161445617676,632.4508059024811,None,,,,,,,1000,001,01,2021_Nov_02_1101,task-switching-replication,2021.2.3,59.82794649823624,
2,36,experiment,01,standing,switch,congruant,dashed,square,yellow,stimuli/dashed-rectangle.png,stimuli/yellow-square.png,2,,,,,,,,,,,,,,,,,,,,,,,,,0,0,0,0,1,0,1,0,0,35,35,35,,,,,,,,,,,,,,,,,,,,,,,,,,,,,,,,,,,,,,,,,,,,,,,,,,,,,,,,,,,,,,,,,,,,,,,,635.3541140556335,None,,,,,,,,,,,,,,,,,,,,,,,,,,,,,,,,,,,,,,,,,,633.4065709114075,None,634.3896210193634,None,2,1,0.8637509346008301,634.3896210193634,None,,,,,,,1000,001,01,2021_Nov_02_1101,task-switching-replication,2021.2.3,59.82794649823624,
2,37,experiment,01,standing,noswitch,incongruant,dashed,triangle,yellow,stimuli/dashed-rectangle.png,stimuli/yellow-triangle.png,1,,,,,,,,,,,,,,,,,,,,,,,,,0,0,0,0,1,0,1,0,0,36,36,36,,,,,0,0,0,0,,,,,,,,,,,,,,,,,,,,,,,,,,,,,,,,,,,,,,,,,,,,,,,,,,,,,,,,,,,,,,,,,,,,,,638.1013991355896,639.1208109855652,638.1328649520874,None,,,,,,,,,,,,,,,,,,,,,,,,,,,,,,,,,,635.5830249786377,None,636.5676980018616,None,None,0,,636.5676980018616,None,,,,,,,1000,001,01,2021_Nov_02_1101,task-switching-replication,2021.2.3,59.82794649823624,
2,37,experiment,01,standing,noswitch,incongruant,dashed,triangle,yellow,stimuli/dashed-rectangle.png,stimuli/yellow-triangle.png,1,,,,,,,,,,,,,,,,,,,,,,,,,0,0,0,0,1,0,1,0,0,36,36,36,,,,,,,,,,,,,,,,,,,,,,,,,,,,,,,,,,,,,,,,,,,,,,,,,,,,,,,,,,,,,,,,,,,,,,,,643.1601209640503,None,,,,,,,,,,,,,,,,,,,,,,,,,,,,,,,,,,,,,,,,,,,,,,,,,,,,,,,,,1000,001,01,2021_Nov_02_1101,task-switching-replication,2021.2.3,59.82794649823624,
2,38,experiment,01,standing,switch,congruant,solid,triangle,blue,stimuli/solid-rectangle.png,stimuli/blue-triangle.png,1,,,,,,,,,,,,,,,,,,,,,,,,,0,0,0,0,1,0,1,0,0,37,37,37,0,0,0,0,,,,,,,,,,,,,,,,,,,,,,,,,,,,,,,,,,,,,,,,,,,,,,,,,,,,,,,,,,,,,,,,,,,,,,645.2179020643234,646.2692000865936,645.250137090683,None,,,,,,,,,,,,,,,,,,,,,,,,,,,,,,,,,,,,,,643.3566489219666,None,644.3412389755249,None,2,0,0.7659430503845215,644.3412389755249,None,,,,,,,1000,001,01,2021_Nov_02_1101,task-switching-replication,2021.2.3,59.82794649823624,
2,38,experiment,01,standing,switch,congruant,solid,triangle,blue,stimuli/solid-rectangle.png,stimuli/blue-triangle.png,1,,,,,,,,,,,,,,,,,,,,,,,,,0,0,0,0,1,0,1,0,0,37,37,37,,,,,,,,,,,,,,,,,,,,,,,,,,,,,,,,,,,,,,,,,,,,,,,,,,,,,,,,,,,,,,,,,,,,,,,,650.2746589183807,None,,,,,,,,,,,,,,,,,,,,,,,,,,,,,,,,,,,,,,,,,,,,,,,,,,,,,,,,,1000,001,01,2021_Nov_02_1101,task-switching-replication,2021.2.3,59.82794649823624,
2,39,experiment,01,standing,noswitch,incongruant,solid,triangle,yellow,stimuli/solid-rectangle.png,stimuli/yellow-triangle.png,2,,,,,,,,,,,,,,,,,,,,,,,,,0,0,0,0,1,0,1,0,0,38,38,38,,,,,,,,,,,,,,,,,,,,,,,,,,,,,,,,,,,,,,,,,,,,,,,,,,,,,,,,,,,,,,,,,,,,,,,,652.2427020072937,None,,,,,,,,,,,,,,,,,,,,,,,,,,,,,,,,,,,,,,,,,,650.470990896225,None,651.4556210041046,None,2,1,0.6965410709381104,651.4556210041046,None,,,,,,,1000,001,01,2021_Nov_02_1101,task-switching-replication,2021.2.3,59.82794649823624,
2,40,experiment,01,standing,switch,congruant,dashed,square,blue,stimuli/dashed-rectangle.png,stimuli/blue-square.png,2,,,,,,,,,,,,,,,,,,,,,,,,,0,0,0,0,1,0,1,0,0,39,39,39,,,,,0,0,0,0,,,,,,,,,,,,,,,,,,,,,,,,,,,,,,,,,,,,,,,,,,,,,,,,,,,,,,,,,,,,,,,,,,,,,,654.745551943779,655.7632739543915,654.7790050506592,None,,,,,,,,,,,,,,,,,,,,,,,,,,,,,,,,,,652.4719099998474,None,653.4551649093628,None,1,0,1.2116570472717285,653.4551649093628,None,,,,,,,1000,001,01,2021_Nov_02_1101,task-switching-replication,2021.2.3,59.82794649823624,
2,40,experiment,01,standing,switch,congruant,dashed,square,blue,stimuli/dashed-rectangle.png,stimuli/blue-square.png,2,,,,,,,,,,,,,,,,,,,,,,,,,0,0,0,0,1,0,1,0,0,39,39,39,,,,,,,,,,,,,,,,,,,,,,,,,,,,,,,,,,,,,,,,,,,,,,,,,,,,,,,,,,,,,,,,,,,,,,,,659.8052370548248,None,,,,,,,,,,,,,,,,,,,,,,,,,,,,,,,,,,,,,,,,,,,,,,,,,,,,,,,,,1000,001,01,2021_Nov_02_1101,task-switching-replication,2021.2.3,59.82794649823624,
2,41,experiment,01,standing,switch,incongruant,solid,triangle,blue,stimuli/solid-rectangle.png,stimuli/blue-triangle.png,1,,,,,,,,,,,,,,,,,,,,,,,,,0,0,0,0,1,0,1,0,0,40,40,40,0,0,0,0,,,,,,,,,,,,,,,,,,,,,,,,,,,,,,,,,,,,,,,,,,,,,,,,,,,,,,,,,,,,,,,,,,,,,,661.6284450292587,662.6802070140839,661.66051197052,None,,,,,,,,,,,,,,,,,,,,,,,,,,,,,,,,,,,,,,660.0018739700317,None,660.9866631031036,None,2,0,0.5358378887176514,660.9866631031036,None,,,,,,,1000,001,01,2021_Nov_02_1101,task-switching-replication,2021.2.3,59.82794649823624,
2,41,experiment,01,standing,switch,incongruant,solid,triangle,blue,stimuli/solid-rectangle.png,stimuli/blue-triangle.png,1,,,,,,,,,,,,,,,,,,,,,,,,,0,0,0,0,1,0,1,0,0,40,40,40,,,,,,,,,,,,,,,,,,,,,,,,,,,,,,,,,,,,,,,,,,,,,,,,,,,,,,,,,,,,,,,,,,,,,,,,666.6854779720306,None,,,,,,,,,,,,,,,,,,,,,,,,,,,,,,,,,,,,,,,,,,,,,,,,,,,,,,,,,1000,001,01,2021_Nov_02_1101,task-switching-replication,2021.2.3,59.82794649823624,
2,42,experiment,01,standing,noswitch,congruant,solid,square,blue,stimuli/solid-rectangle.png,stimuli/blue-square.png,1,,,,,,,,,,,,,,,,,,,,,,,,,0,0,0,0,1,0,1,0,0,41,41,41,,,,,,,,,,,,,,,,,,,,,,,,,,,,,,,,,,,,,,,,,,,,,,,,,,,,,,,,,,,,,,,,,,,,,,,,668.6542370319366,None,,,,,,,,,,,,,,,,,,,,,,,,,,,,,,,,,,,,,,,,,,666.8822259902954,None,667.866602897644,None,1,1,0.6296050548553467,667.866602897644,None,,,,,,,1000,001,01,2021_Nov_02_1101,task-switching-replication,2021.2.3,59.82794649823624,
2,43,experiment,01,standing,switch,congruant,dashed,triangle,blue,stimuli/dashed-rectangle.png,stimuli/blue-triangle.png,1,,,,,,,,,,,,,,,,,,,,,,,,,0,0,0,0,1,0,1,0,0,42,42,42,,,,,,,,,,,,,,,,,,,,,,,,,,,,,,,,,,,,,,,,,,,,,,,,,,,,,,,,,,,,,,,,,,,,,,,,670.772047996521,None,,,,,,,,,,,,,,,,,,,,,,,,,,,,,,,,,,,,,,,,,,668.8830881118774,None,669.8673479557037,None,1,1,0.7605690956115723,669.8673479557037,None,,,,,,,1000,001,01,2021_Nov_02_1101,task-switching-replication,2021.2.3,59.82794649823624,
2,44,experiment,01,standing,noswitch,incongruant,dashed,square,yellow,stimuli/dashed-rectangle.png,stimuli/yellow-square.png,2,,,,,,,,,,,,,,,,,,,,,,,,,0,0,0,0,1,0,1,0,0,43,43,43,,,,,,,,,,,,,,,,,,,,,,,,,,,,,,,,,,,,,,,,,,,,,,,,,,,,,,,,,,,,,,,,,,,,,,,,673.069314956665,None,,,,,,,,,,,,,,,,,,,,,,,,,,,,,,,,,,,,,,,,,,671.0009679794312,None,671.9850189685822,None,2,1,0.9559879302978516,671.9850189685822,None,,,,,,,1000,001,01,2021_Nov_02_1101,task-switching-replication,2021.2.3,59.82794649823624,
2,45,experiment,01,standing,noswitch,congruant,dashed,square,blue,stimuli/dashed-rectangle.png,stimuli/blue-square.png,2,,,,,,,,,,,,,,,,,,,,,,,,,0,0,0,0,1,0,1,0,0,44,44,44,,,,,,,,,,,,,,,,,,,,,,,,,,,,,,,,,,,,,,,,,,,,,,,,,,,,,,,,,,,,,,,,,,,,,,,,674.8924820423126,None,,,,,,,,,,,,,,,,,,,,,,,,,,,,,,,,,,,,,,,,,,673.2985439300537,None,674.2830400466919,None,2,1,0.47600603103637695,674.2830400466919,None,,,,,,,1000,001,01,2021_Nov_02_1101,task-switching-replication,2021.2.3,59.82794649823624,
2,46,experiment,01,standing,noswitch,incongruant,dashed,triangle,yellow,stimuli/dashed-rectangle.png,stimuli/yellow-triangle.png,1,,,,,,,,,,,,,,,,,,,,,,,,,0,0,0,0,1,0,1,0,0,45,45,45,,,,,,,,,,,,,,,,,,,,,,,,,,,,,,,,,,,,,,,,,,,,,,,,,,,,,,,,,,,,,,,,,,,,,,,,677.0122599601746,None,,,,,,,,,,,,,,,,,,,,,,,,,,,,,,,,,,,,,,,,,,675.1212599277496,None,676.1056458950043,None,1,1,0.7633521556854248,676.1056458950043,None,,,,,,,1000,001,01,2021_Nov_02_1101,task-switching-replication,2021.2.3,59.82794649823624,
2,47,experiment,01,standing,switch,congruant,solid,triangle,blue,stimuli/solid-rectangle.png,stimuli/blue-triangle.png,1,,,,,,,,,,,,,,,,,,,,,,,,,0,0,0,0,1,0,1,0,0,46,46,46,0,0,0,0,,,,,,,,,,,,,,,,,,,,,,,,,,,,,,,,,,,,,,,,,,,,,,,,,,,,,,,,,,,,,,,,,,,,,,679.0413130521774,680.0928349494934,679.0738129615784,None,,,,,,,,,,,,,,,,,,,,,,,,,,,,,,,,,,,,,,677.2408790588379,None,678.2240810394287,None,2,0,0.7294418811798096,678.2240810394287,None,,,,,,,1000,001,01,2021_Nov_02_1101,task-switching-replication,2021.2.3,59.82794649823624,
2,47,experiment,01,standing,switch,congruant,solid,triangle,blue,stimuli/solid-rectangle.png,stimuli/blue-triangle.png,1,,,,,,,,,,,,,,,,,,,,,,,,,0,0,0,0,1,0,1,0,0,46,46,46,,,,,,,,,,,,,,,,,,,,,,,,,,,,,,,,,,,,,,,,,,,,,,,,,,,,,,,,,,,,,,,,,,,,,,,,684.0988121032715,None,,,,,,,,,,,,,,,,,,,,,,,,,,,,,,,,,,,,,,,,,,,,,,,,,,,,,,,,,1000,001,01,2021_Nov_02_1101,task-switching-replication,2021.2.3,59.82794649823624,
2,48,experiment,01,standing,noswitch,congruant,solid,triangle,blue,stimuli/solid-rectangle.png,stimuli/blue-triangle.png,1,,,,,,,,,,,,,,,,,,,,,,,,,0,0,0,0,1,0,1,0,0,47,47,47,,,,,,,,,,,,,,,,,,,,,,,,,,,,,,,,,,,,,,,,,,,,,,,,,,,,,,,,,,,,,,,,,,,,,,,,685.8927590847015,None,,,,,,,,,,,,,,,,,,,,,,,,,,,,,,,,,,,,,,,,,,684.2955069541931,None,685.2791979312897,None,1,1,0.4848289489746094,685.2791979312897,None,,,,,,,1000,001,01,2021_Nov_02_1101,task-switching-replication,2021.2.3,59.82794649823624,
2,49,experiment,01,standing,switch,congruant,dashed,triangle,blue,stimuli/dashed-rectangle.png,stimuli/blue-triangle.png,1,,,,,,,,,,,,,,,,,,,,,,,,,0,0,0,0,1,0,1,0,0,48,48,48,,,,,0,0,0,0,,,,,,,,,,,,,,,,,,,,,,,,,,,,,,,,,,,,,,,,,,,,,,,,,,,,,,,,,,,,,,,,,,,,,,687.8640900850296,688.882483959198,687.8973500728607,None,,,,,,,,,,,,,,,,,,,,,,,,,,,,,,,,,,686.1215679645538,None,687.1061880588531,None,2,0,0.6749651432037354,687.1061880588531,None,,,,,,,1000,001,01,2021_Nov_02_1101,task-switching-replication,2021.2.3,59.82794649823624,
2,49,experiment,01,standing,switch,congruant,dashed,triangle,blue,stimuli/dashed-rectangle.png,stimuli/blue-triangle.png,1,,,,,,,,,,,,,,,,,,,,,,,,,0,0,0,0,1,0,1,0,0,48,48,48,,,,,,,,,,,,,,,,,,,,,,,,,,,,,,,,,,,,,,,,,,,,,,,,,,,,,,,,,,,,,,,,,,,,,,,,692.9205899238586,None,,,,,,,,,,,,,,,,,,,,,,,,,,,,,,,,,,,,,,,,,,,,,,,,,,,,,,,,,1000,001,01,2021_Nov_02_1101,task-switching-replication,2021.2.3,59.82794649823624,
,,,01,,,,,,,,,,,,,,,,,,,,,,,,,,,,,,,,,,0,0,0,0,1,0,1,0,,,,,,,,,,,,,,,,,,,,,,,,,,,,,,,,,,,,,,,,,,,,,,,,,,,,,,,,,,,,,,,,,,,,,,,,,,,,,,,,,,,,,,,,,,,,,,,,,,,,,,,,,,,,,,,,,,,,,,,,,,,,,,,,,,,,,,1000,001,01,2021_Nov_02_1101,task-switching-replication,2021.2.3,59.82794649823624,
3,1,experiment,01,standing,buffer,buffer,dashed,triangle,yellow,stimuli/dashed-rectangle.png,stimuli/yellow-triangle.png,1,,,,,,,,,,,,,,,,,,,,,,,,,0,0,0,0,2,0,2,0,0,0,0,0,,,,,,,,,,,,,,,,,,,,,,,,,,,,,,,,,,,,,,,,,,,,,,,,,,,,,,,,,,,,,,,,,,,,,,,,780.0764999389648,None,,,,,,,,,,,,,,,,,,,,,,,,,,,,,,693.1175670623779,None,2,83.77648091316223,693.1175670623779,None,776.980889081955,None,2,0.9741168022155762,776.980889081955,None,778.0702979564667,None,779.0537919998169,None,1,1,0.92240309715271,779.0537919998169,None,,,,,,,1000,001,01,2021_Nov_02_1101,task-switching-replication,2021.2.3,59.82794649823624,
3,2,experiment,01,standing,switch,congruant,solid,triangle,blue,stimuli/solid-rectangle.png,stimuli/blue-triangle.png,1,,,,,,,,,,,,,,,,,,,,,,,,,0,0,0,0,2,0,2,0,0,1,1,1,0,0,0,0,,,,,,,,,,,,,,,,,,,,,,,,,,,,,,,,,,,,,,,,,,,,,,,,,,,,,,,,,,,,,,,,,,,,,,782.2259370088577,783.2435989379883,782.2591710090637,None,,,,,,,,,,,,,,,,,,,,,,,,,,,,,,,,,,,,,,780.3054540157318,None,781.2903439998627,None,2,0,0.8570280075073242,781.2903439998627,None,,,,,,,1000,001,01,2021_Nov_02_1101,task-switching-replication,2021.2.3,59.82794649823624,
3,2,experiment,01,standing,switch,congruant,solid,triangle,blue,stimuli/solid-rectangle.png,stimuli/blue-triangle.png,1,,,,,,,,,,,,,,,,,,,,,,,,,0,0,0,0,2,0,2,0,0,1,1,1,,,,,,,,,,,,,,,,,,,,,,,,,,,,,,,,,,,,,,,,,,,,,,,,,,,,,,,,,,,,,,,,,,,,,,,,787.2846040725708,None,,,,,,,,,,,,,,,,,,,,,,,,,,,,,,,,,,,,,,,,,,,,,,,,,,,,,,,,,1000,001,01,2021_Nov_02_1101,task-switching-replication,2021.2.3,59.82794649823624,
3,3,experiment,01,standing,noswitch,congruant,solid,square,blue,stimuli/solid-rectangle.png,stimuli/blue-square.png,1,,,,,,,,,,,,,,,,,,,,,,,,,0,0,0,0,2,0,2,0,0,2,2,2,0,0,0,0,,,,,,,,,,,,,,,,,,,,,,,,,,,,,,,,,,,,,,,,,,,,,,,,,,,,,,,,,,,,,,,,,,,,,,790.0058342933655,791.0564560890198,790.0370750427246,None,,,,,,,,,,,,,,,,,,,,,,,,,,,,,,,,,,,,,,787.4858019351959,None,788.4697439670563,None,None,0,,788.4697439670563,None,,,,,,,1000,001,01,2021_Nov_02_1101,task-switching-replication,2021.2.3,59.82794649823624,
3,3,experiment,01,standing,noswitch,congruant,solid,square,blue,stimuli/solid-rectangle.png,stimuli/blue-square.png,1,,,,,,,,,,,,,,,,,,,,,,,,,0,0,0,0,2,0,2,0,0,2,2,2,,,,,,,,,,,,,,,,,,,,,,,,,,,,,,,,,,,,,,,,,,,,,,,,,,,,,,,,,,,,,,,,,,,,,,,,795.057452917099,None,,,,,,,,,,,,,,,,,,,,,,,,,,,,,,,,,,,,,,,,,,,,,,,,,,,,,,,,,1000,001,01,2021_Nov_02_1101,task-switching-replication,2021.2.3,59.82794649823624,
3,4,experiment,01,standing,noswitch,congruant,solid,triangle,blue,stimuli/solid-rectangle.png,stimuli/blue-triangle.png,1,,,,,,,,,,,,,,,,,,,,,,,,,0,0,0,0,2,0,2,0,0,3,3,3,,,,,,,,,,,,,,,,,,,,,,,,,,,,,,,,,,,,,,,,,,,,,,,,,,,,,,,,,,,,,,,,,,,,,,,,797.4393129348755,None,,,,,,,,,,,,,,,,,,,,,,,,,,,,,,,,,,,,,,,,,,795.254152059555,None,796.2390360832214,None,1,1,1.1037638187408447,796.2390360832214,None,,,,,,,1000,001,01,2021_Nov_02_1101,task-switching-replication,2021.2.3,59.82794649823624,
3,5,experiment,01,standing,switch,congruant,dashed,triangle,blue,stimuli/dashed-rectangle.png,stimuli/blue-triangle.png,1,,,,,,,,,,,,,,,,,,,,,,,,,0,0,0,0,2,0,2,0,0,4,4,4,,,,,,,,,,,,,,,,,,,,,,,,,,,,,,,,,,,,,,,,,,,,,,,,,,,,,,,,,,,,,,,,,,,,,,,,799.4971361160278,None,,,,,,,,,,,,,,,,,,,,,,,,,,,,,,,,,,,,,,,,,,797.6684110164642,None,798.6519219875336,None,1,1,0.733396053314209,798.6519219875336,None,,,,,,,1000,001,01,2021_Nov_02_1101,task-switching-replication,2021.2.3,59.82794649823624,
3,6,experiment,01,standing,noswitch,congruant,dashed,triangle,yellow,stimuli/dashed-rectangle.png,stimuli/yellow-triangle.png,1,,,,,,,,,,,,,,,,,,,,,,,,,0,0,0,0,2,0,2,0,0,5,5,5,,,,,,,,,,,,,,,,,,,,,,,,,,,,,,,,,,,,,,,,,,,,,,,,,,,,,,,,,,,,,,,,,,,,,,,,801.573616027832,None,,,,,,,,,,,,,,,,,,,,,,,,,,,,,,,,,,,,,,,,,,799.7438409328461,None,800.7276298999786,None,1,1,0.7161340713500977,800.7276298999786,None,,,,,,,1000,001,01,2021_Nov_02_1101,task-switching-replication,2021.2.3,59.82794649823624,
3,7,experiment,01,standing,noswitch,incongruant,dashed,square,blue,stimuli/dashed-rectangle.png,stimuli/blue-square.png,2,,,,,,,,,,,,,,,,,,,,,,,,,0,0,0,0,2,0,2,0,0,6,6,6,,,,,,,,,,,,,,,,,,,,,,,,,,,,,,,,,,,,,,,,,,,,,,,,,,,,,,,,,,,,,,,,,,,,,,,,803.3369619846344,None,,,,,,,,,,,,,,,,,,,,,,,,,,,,,,,,,,,,,,,,,,801.8027009963989,None,802.7870049476624,None,2,1,0.4525430202484131,802.7870049476624,None,,,,,,,1000,001,01,2021_Nov_02_1101,task-switching-replication,2021.2.3,59.82794649823624,
3,8,experiment,01,standing,switch,incongruant,solid,square,blue,stimuli/solid-rectangle.png,stimuli/blue-square.png,1,,,,,,,,,,,,,,,,,,,,,,,,,0,0,0,0,2,0,2,0,0,7,7,7,,,,,,,,,,,,,,,,,,,,,,,,,,,,,,,,,,,,,,,,,,,,,,,,,,,,,,,,,,,,,,,,,,,,,,,,805.6957919597626,None,,,,,,,,,,,,,,,,,,,,,,,,,,,,,,,,,,,,,,,,,,803.5656979084015,None,804.5505919456482,None,1,1,0.9851460456848145,804.5505919456482,None,,,,,,,1000,001,01,2021_Nov_02_1101,task-switching-replication,2021.2.3,59.82794649823624,
3,9,experiment,01,standing,noswitch,incongruant,solid,triangle,yellow,stimuli/solid-rectangle.png,stimuli/yellow-triangle.png,2,,,,,,,,,,,,,,,,,,,,,,,,,0,0,0,0,2,0,2,0,0,8,8,8,,,,,,,,,,,,,,,,,,,,,,,,,,,,,,,,,,,,,,,,,,,,,,,,,,,,,,,,,,,,,,,,,,,,,,,,807.6932148933411,None,,,,,,,,,,,,,,,,,,,,,,,,,,,,,,,,,,,,,,,,,,805.8602859973907,None,806.8452980518341,None,2,1,0.704658031463623,806.8452980518341,None,,,,,,,1000,001,01,2021_Nov_02_1101,task-switching-replication,2021.2.3,59.82794649823624,
3,10,experiment,01,standing,noswitch,congruant,solid,square,yellow,stimuli/solid-rectangle.png,stimuli/yellow-square.png,2,,,,,,,,,,,,,,,,,,,,,,,,,0,0,0,0,2,0,2,0,0,9,9,9,,,,,,,,,,,,,,,,,,,,,,,,,,,,,,,,,,,,,,,,,,,,,,,,,,,,,,,,,,,,,,,,,,,,,,,,809.6344890594482,None,,,,,,,,,,,,,,,,,,,,,,,,,,,,,,,,,,,,,,,,,,807.9226899147034,None,808.9066159725189,None,2,1,0.5852179527282715,808.9066159725189,None,,,,,,,1000,001,01,2021_Nov_02_1101,task-switching-replication,2021.2.3,59.82794649823624,
3,11,experiment,01,standing,noswitch,incongruant,solid,triangle,blue,stimuli/solid-rectangle.png,stimuli/blue-triangle.png,1,,,,,,,,,,,,,,,,,,,,,,,,,0,0,0,0,2,0,2,0,0,10,10,10,,,,,,,,,,,,,,,,,,,,,,,,,,,,,,,,,,,,,,,,,,,,,,,,,,,,,,,,,,,,,,,,,,,,,,,,811.3393030166626,None,,,,,,,,,,,,,,,,,,,,,,,,,,,,,,,,,,,,,,,,,,809.8636360168457,None,810.8484110832214,None,1,1,0.38690614700317383,810.8484110832214,None,,,,,,,1000,001,01,2021_Nov_02_1101,task-switching-replication,2021.2.3,59.82794649823624,
3,12,experiment,01,standing,noswitch,congruant,solid,triangle,blue,stimuli/solid-rectangle.png,stimuli/blue-triangle.png,1,,,,,,,,,,,,,,,,,,,,,,,,,0,0,0,0,2,0,2,0,0,11,11,11,,,,,,,,,,,,,,,,,,,,,,,,,,,,,,,,,,,,,,,,,,,,,,,,,,,,,,,,,,,,,,,,,,,,,,,,813.1628849506378,None,,,,,,,,,,,,,,,,,,,,,,,,,,,,,,,,,,,,,,,,,,811.5687310695648,None,812.5531959533691,None,1,1,0.4754509925842285,812.5531959533691,None,,,,,,,1000,001,01,2021_Nov_02_1101,task-switching-replication,2021.2.3,59.82794649823624,
3,13,experiment,01,standing,switch,incongruant,dashed,square,yellow,stimuli/dashed-rectangle.png,stimuli/yellow-square.png,2,,,,,,,,,,,,,,,,,,,,,,,,,0,0,0,0,2,0,2,0,0,12,12,12,,,,,,,,,,,,,,,,,,,,,,,,,,,,,,,,,,,,,,,,,,,,,,,,,,,,,,,,,,,,,,,,,,,,,,,,815.1047470569611,None,,,,,,,,,,,,,,,,,,,,,,,,,,,,,,,,,,,,,,,,,,813.3926520347595,None,814.3771879673004,None,2,1,0.5794501304626465,814.3771879673004,None,,,,,,,1000,001,01,2021_Nov_02_1101,task-switching-replication,2021.2.3,59.82794649823624,
3,14,experiment,01,standing,switch,congruant,solid,triangle,yellow,stimuli/solid-rectangle.png,stimuli/yellow-triangle.png,2,,,,,,,,,,,,,,,,,,,,,,,,,0,0,0,0,2,0,2,0,0,13,13,13,0,0,0,0,,,,,,,,,,,,,,,,,,,,,,,,,,,,,,,,,,,,,,,,,,,,,,,,,,,,,,,,,,,,,,,,,,,,,,817.1401959657669,818.1922578811646,817.1725430488586,None,,,,,,,,,,,,,,,,,,,,,,,,,,,,,,,,,,,,,,815.3335769176483,None,816.3189649581909,None,1,0,0.7106080055236816,816.3189649581909,None,,,,,,,1000,001,01,2021_Nov_02_1101,task-switching-replication,2021.2.3,59.82794649823624,
3,14,experiment,01,standing,switch,congruant,solid,triangle,yellow,stimuli/solid-rectangle.png,stimuli/yellow-triangle.png,2,,,,,,,,,,,,,,,,,,,,,,,,,0,0,0,0,2,0,2,0,0,13,13,13,,,,,,,,,,,,,,,,,,,,,,,,,,,,,,,,,,,,,,,,,,,,,,,,,,,,,,,,,,,,,,,,,,,,,,,,822.1971080303192,None,,,,,,,,,,,,,,,,,,,,,,,,,,,,,,,,,,,,,,,,,,,,,,,,,,,,,,,,,1000,001,01,2021_Nov_02_1101,task-switching-replication,2021.2.3,59.82794649823624,
3,15,experiment,01,standing,switch,incongruant,dashed,triangle,blue,stimuli/dashed-rectangle.png,stimuli/blue-triangle.png,1,,,,,,,,,,,,,,,,,,,,,,,,,0,0,0,0,2,0,2,0,0,14,14,14,,,,,,,,,,,,,,,,,,,,,,,,,,,,,,,,,,,,,,,,,,,,,,,,,,,,,,,,,,,,,,,,,,,,,,,,824.2840909957886,None,,,,,,,,,,,,,,,,,,,,,,,,,,,,,,,,,,,,,,,,,,822.3938319683075,None,823.3787100315094,None,1,1,0.7884669303894043,823.3787100315094,None,,,,,,,1000,001,01,2021_Nov_02_1101,task-switching-replication,2021.2.3,59.82794649823624,
3,16,experiment,01,standing,switch,incongruant,solid,square,yellow,stimuli/solid-rectangle.png,stimuli/yellow-square.png,2,,,,,,,,,,,,,,,,,,,,,,,,,0,0,0,0,2,0,2,0,0,15,15,15,,,,,,,,,,,,,,,,,,,,,,,,,,,,,,,,,,,,,,,,,,,,,,,,,,,,,,,,,,,,,,,,,,,,,,,,826.935131072998,None,,,,,,,,,,,,,,,,,,,,,,,,,,,,,,,,,,,,,,,,,,824.5131099224091,None,825.4981849193573,None,2,1,1.3035361766815186,825.4981849193573,None,,,,,,,1000,001,01,2021_Nov_02_1101,task-switching-replication,2021.2.3,59.82794649823624,
3,17,experiment,01,standing,switch,incongruant,dashed,triangle,blue,stimuli/dashed-rectangle.png,stimuli/blue-triangle.png,1,,,,,,,,,,,,,,,,,,,,,,,,,0,0,0,0,2,0,2,0,0,16,16,16,,,,,,,,,,,,,,,,,,,,,,,,,,,,,,,,,,,,,,,,,,,,,,,,,,,,,,,,,,,,,,,,,,,,,,,,829.1766500473022,None,,,,,,,,,,,,,,,,,,,,,,,,,,,,,,,,,,,,,,,,,,827.1651780605316,None,828.1500051021576,None,1,1,0.8933110237121582,828.1500051021576,None,,,,,,,1000,001,01,2021_Nov_02_1101,task-switching-replication,2021.2.3,59.82794649823624,
3,18,experiment,01,standing,noswitch,incongruant,dashed,square,blue,stimuli/dashed-rectangle.png,stimuli/blue-square.png,2,,,,,,,,,,,,,,,,,,,,,,,,,0,0,0,0,2,0,2,0,0,17,17,17,,,,,,,,,,,,,,,,,,,,,,,,,,,,,,,,,,,,,,,,,,,,,,,,,,,,,,,,,,,,,,,,,,,,,,,,831.4138770103455,None,,,,,,,,,,,,,,,,,,,,,,,,,,,,,,,,,,,,,,,,,,829.4059579372406,None,830.3905849456787,None,2,1,0.8848831653594971,830.3905849456787,None,,,,,,,1000,001,01,2021_Nov_02_1101,task-switching-replication,2021.2.3,59.82794649823624,
3,19,experiment,01,standing,noswitch,congruant,dashed,square,yellow,stimuli/dashed-rectangle.png,stimuli/yellow-square.png,2,,,,,,,,,,,,,,,,,,,,,,,,,0,0,0,0,2,0,2,0,0,18,18,18,,,,,,,,,,,,,,,,,,,,,,,,,,,,,,,,,,,,,,,,,,,,,,,,,,,,,,,,,,,,,,,,,,,,,,,,833.237025976181,None,,,,,,,,,,,,,,,,,,,,,,,,,,,,,,,,,,,,,,,,,,831.642970085144,None,832.6274859905243,None,2,1,0.5182480812072754,832.6274859905243,None,,,,,,,1000,001,01,2021_Nov_02_1101,task-switching-replication,2021.2.3,59.82794649823624,
3,20,experiment,01,standing,switch,incongruant,solid,square,blue,stimuli/solid-rectangle.png,stimuli/blue-square.png,1,,,,,,,,,,,,,,,,,,,,,,,,,0,0,0,0,2,0,2,0,0,19,19,19,,,,,,,,,,,,,,,,,,,,,,,,,,,,,,,,,,,,,,,,,,,,,,,,,,,,,,,,,,,,,,,,,,,,,,,,835.357006072998,None,,,,,,,,,,,,,,,,,,,,,,,,,,,,,,,,,,,,,,,,,,833.4659008979797,None,834.4507908821106,None,1,1,0.7578761577606201,834.4507908821106,None,,,,,,,1000,001,01,2021_Nov_02_1101,task-switching-replication,2021.2.3,59.82794649823624,
3,21,experiment,01,standing,switch,congruant,dashed,triangle,yellow,stimuli/dashed-rectangle.png,stimuli/yellow-triangle.png,1,,,,,,,,,,,,,,,,,,,,,,,,,0,0,0,0,2,0,2,0,0,20,20,20,,,,,,,,,,,,,,,,,,,,,,,,,,,,,,,,,,,,,,,,,,,,,,,,,,,,,,,,,,,,,,,,,,,,,,,,837.8901679515839,None,,,,,,,,,,,,,,,,,,,,,,,,,,,,,,,,,,,,,,,,,,835.5857288837433,None,836.5712900161743,None,1,1,1.2172269821166992,836.5712900161743,None,,,,,,,1000,001,01,2021_Nov_02_1101,task-switching-replication,2021.2.3,59.82794649823624,
3,22,experiment,01,standing,noswitch,incongruant,dashed,square,blue,stimuli/dashed-rectangle.png,stimuli/blue-square.png,2,,,,,,,,,,,,,,,,,,,,,,,,,0,0,0,0,2,0,2,0,0,21,21,21,,,,,,,,,,,,,,,,,,,,,,,,,,,,,,,,,,,,,,,,,,,,,,,,,,,,,,,,,,,,,,,,,,,,,,,,839.7730178833008,None,,,,,,,,,,,,,,,,,,,,,,,,,,,,,,,,,,,,,,,,,,838.1195290088654,None,839.1043059825897,None,2,1,0.5589478015899658,839.1043059825897,None,,,,,,,1000,001,01,2021_Nov_02_1101,task-switching-replication,2021.2.3,59.82794649823624,
