blockNum,trialNum,trialType,condition,posture,switchTrialType,congruantTrialType,cueType,shapeType,shapeColor,cueFileName,stimuliFileName,correctAnswer,untimedTrials.thisRepN,untimedTrials.thisTrialN,untimedTrials.thisN,untimedTrials.thisIndex,selectSolid1.thisRepN,selectSolid1.thisTrialN,selectSolid1.thisN,selectSolid1.thisIndex,selectDashed1.thisRepN,selectDashed1.thisTrialN,selectDashed1.thisN,selectDashed1.thisIndex,timedTrials.thisRepN,timedTrials.thisTrialN,timedTrials.thisN,timedTrials.thisIndex,selectSolid2.thisRepN,selectSolid2.thisTrialN,selectSolid2.thisN,selectSolid2.thisIndex,selectDashed2.thisRepN,selectDashed2.thisTrialN,selectDashed2.thisN,selectDashed2.thisIndex,postures.thisRepN,postures.thisTrialN,postures.thisN,postures.thisIndex,blocks.thisRepN,blocks.thisTrialN,blocks.thisN,blocks.thisIndex,trials.thisRepN,trials.thisTrialN,trials.thisN,trials.thisIndex,selectSolid.thisRepN,selectSolid.thisTrialN,selectSolid.thisN,selectSolid.thisIndex,selectDashed.thisRepN,selectDashed.thisTrialN,selectDashed.thisN,selectDashed.thisIndex,text_3.started,text_3.stopped,key_resp_2.keys,key_resp_2.rt,key_resp_2.started,key_resp_2.stopped,image_4.started,image_4.stopped,key_resp_4.keys,key_resp_4.rt,key_resp_4.started,key_resp_4.stopped,image_5.started,image_5.stopped,key_resp_5.keys,key_resp_5.rt,key_resp_5.started,key_resp_5.stopped,image_6.started,image_6.stopped,key_resp_6.keys,key_resp_6.rt,key_resp_6.started,key_resp_6.stopped,image_7.started,image_7.stopped,key_resp_7.keys,key_resp_7.rt,key_resp_7.started,key_resp_7.stopped,image_8.started,image_8.stopped,key_resp_8.keys,key_resp_8.rt,key_resp_8.started,key_resp_8.stopped,image_9.started,image_9.stopped,key_resp_9.keys,key_resp_9.rt,key_resp_9.started,key_resp_9.stopped,image_10.started,image_10.stopped,key_resp_10.keys,key_resp_10.rt,key_resp_10.started,key_resp_10.stopped,image_11.started,image_11.stopped,key_resp_11.keys,key_resp_11.rt,key_resp_11.started,key_resp_11.stopped,utcTime,cue_untimed_image.started,cue_untimed_image.stopped,stimuli_untimed_image.started,stimuli_untimed_image.stopped,untimed_resp.keys,untimed_resp.corr,untimed_resp.rt,untimed_resp.started,untimed_resp.stopped,text_2.started,text_2.stopped,sound_2.started,sound_2.stopped,image_3.started,image_3.stopped,image_12.started,image_12.stopped,key_resp_12.keys,key_resp_12.rt,key_resp_12.started,key_resp_12.stopped,image_13.started,image_13.stopped,key_resp_13.keys,key_resp_13.rt,key_resp_13.started,key_resp_13.stopped,cue_timed_image.started,cue_timed_image.stopped,stimuli_timed_image.started,stimuli_timed_image.stopped,timed_resp.keys,timed_resp.corr,timed_resp.started,timed_resp.stopped,sound_1.started,sound_1.stopped,image_2.started,image_2.stopped,timed_resp.rt,image.started,image.stopped,key_response.keys,key_response.rt,key_response.started,key_response.stopped,text.started,text.stopped,key_resp.keys,key_resp.rt,key_resp.started,key_resp.stopped,cue_image.started,cue_image.stopped,stimuli_image.started,stimuli_image.stopped,exp_resp.keys,exp_resp.corr,exp_resp.rt,exp_resp.started,exp_resp.stopped,text_4.started,text_4.stopped,key_resp_3.keys,key_resp_3.rt,key_resp_3.started,key_resp_3.stopped,participant,session,condition,date,expName,psychopyVersion,frameRate,
,,,02,,,,,,,,,,,,,,,,,,,,,,,,,,,,,,,,,,,,,,,,,,,,,,,,,,,,,,138.14707207679749,None,2,135.05082511901855,138.14707207679749,None,,,,,,,,,,,,,,,,,,,,,,,,,,,,,,,,,,,,,,,,,,,,,,,,,,,,,,,,,,,,,,,,,,,,,,,,,,,,,,,,,,,,,,,,,,,,,,,,,,,,,,,,,,,,,,,,,,,,,8000,001,02,2021_Nov_04_1446,task-switching-replication,2021.2.3,59.9951652608256,
,,,02,,,,,,,,,,,,,,,,,,,,,,,,,,,,,,,,,,,,,,,,,,,,,,,,,,,,,,,,,,,,273.26760697364807,None,2,12.469697952270508,273.26760697364807,None,,,,,,,,,,,,,,,,,,,,,,,,,,,,,,,,,,,,,,,,,,,,,,,,,,,,,,,,,,,,,,,,,,,,,,,,,,,,,,,,,,,,,,,,,,,,,,,,,,,,,,,,,,,,,,,8000,001,02,2021_Nov_04_1446,task-switching-replication,2021.2.3,59.9951652608256,
,,,02,,,,,,,,,,,,,,,,,,,,,,,,,,,,,,,,,,,,,,,,,,,,,,,,,,,,,,,,,,,,,,,,,,285.84178400039673,None,1,12.687289953231812,285.84178400039673,None,,,,,,,,,,,,,,,,,,,,,,,,,,,,,,,,,,,,,,,,,,,,,,,,,,,,,,,,,,,,,,,,,,,,,,,,,,,,,,,,,,,,,,,,,,,,,,,,,,,,,,,,,8000,001,02,2021_Nov_04_1446,task-switching-replication,2021.2.3,59.9951652608256,
,,,02,,,,,,,,,,,,,,,,,,,,,,,,,,,,,,,,,,,,,,,,,,,,,,,,,,,,,,,,,,,,,,,,,,,,,,,,298.6500949859619,None,2,2.434892177581787,298.6500949859619,None,,,,,,,,,,,,,,,,,,,,,,,,,,,,,,,,,,,,,,,,,,,,,,,,,,,,,,,,,,,,,,,,,,,,,,,,,,,,,,,,,,,,,,,,,,,,,,,,,,,8000,001,02,2021_Nov_04_1446,task-switching-replication,2021.2.3,59.9951652608256,
,,,02,,,,,,,,,,,,,,,,,,,,,,,,,,,,,,,,,,,,,,,,,,,,,,,,,,,,,,,,,,,,,,,,,,,,,,,,,,,,,,301.19642305374146,None,2,2.1328890323638916,301.19642305374146,None,,,,,,,,,,,,,,,,,,,,,,,,,,,,,,,,,,,,,,,,,,,,,,,,,,,,,,,,,,,,,,,,,,,,,,,,,,,,,,,,,,,,,,,,,,,,,8000,001,02,2021_Nov_04_1446,task-switching-replication,2021.2.3,59.9951652608256,
,,,02,,,,,,,,,,,,,,,,,,,,,,,,,,,,,,,,,,,,,,,,,,,,,,,,,,,,,,,,,,,,,,,,,,,,,,,,,,,,,,,,,,,,303.4351830482483,None,1,3.6574130058288574,303.4351830482483,None,,,,,,,,,,,,,,,,,,,,,,,,,,,,,,,,,,,,,,,,,,,,,,,,,,,,,,,,,,,,,,,,,,,,,,,,,,,,,,,,,,,,,,,8000,001,02,2021_Nov_04_1446,task-switching-replication,2021.2.3,59.9951652608256,
,,,02,,,,,,,,,,,,,,,,,,,,,,,,,,,,,,,,,,,,,,,,,,,,,,,,,,,,,,,,,,,,,,,,,,,,,,,,,,,,,,,,,,,,,,,,,,307.19410395622253,None,2,1.495926856994629,307.19410395622253,None,,,,,,,,,,,,,,,,,,,,,,,,,,,,,,,,,,,,,,,,,,,,,,,,,,,,,,,,,,,,,,,,,,,,,,,,,,,,,,,,,8000,001,02,2021_Nov_04_1446,task-switching-replication,2021.2.3,59.9951652608256,
,,,02,,,,,,,,,,,,,,,,,,,,,,,,,,,,,,,,,,,,,,,,,,,,,,,,,,,,,,,,,,,,,,,,,,,,,,,,,,,,,,,,,,,,,,,,,,,,,,,,308.76482605934143,None,2,1.7733709812164307,308.76482605934143,None,,,,,,,,,,,,,,,,,,,,,,,,,,,,,,,,,,,,,,,,,,,,,,,,,,,,,,,,,,,,,,,,,,,,,,,,,,,8000,001,02,2021_Nov_04_1446,task-switching-replication,2021.2.3,59.9951652608256,
,,,02,,,,,,,,,,,,,,,,,,,,,,,,,,,,,,,,,,,,,,,,,,,,,,,,,,,,,,,,,,,,,,,,,,,,,,,,,,,,,,,,,,,,,,,,,,,,,,,,,,,,,,310.64014315605164,None,2,14.825862884521484,310.64014315605164,None,,,,,,,,,,,,,,,,,,,,,,,,,,,,,,,,,,,,,,,,,,,,,,,,,,,,,,,,,,,,,,,,,,,,,8000,001,02,2021_Nov_04_1446,task-switching-replication,2021.2.3,59.9951652608256,
1,1,untimed,02,standing,buffer,buffer,solid,square,blue,stimuli/solid-rectangle.png,stimuli/blue-square.png,1,0,0,0,0,,,,,,,,,,,,,,,,,,,,,,,,,,,,,,,,,,,,,,,,,,,,,,,,,,,,,,,,,,,,,,,,,,,,,,,,,,,,,,,,,,,,,,,,,,,,,,,1636055397.003349,325.58351397514343,None,326.5872869491577,None,1,1,0.8407609462738037,326.5872869491577,None,327.56325912475586,None,,,,,,,,,,,,,,,,,,,,,,,,,,,,,,,,,,,,,,,,,,,,,,,,,,,,,,,,,8000,001,02,2021_Nov_04_1446,task-switching-replication,2021.2.3,59.9951652608256,
1,2,untimed,02,standing,noswitch,congruant,solid,triangle,blue,stimuli/solid-rectangle.png,stimuli/blue-triangle.png,1,0,1,1,1,,,,,,,,,,,,,,,,,,,,,,,,,,,,,,,,,,,,,,,,,,,,,,,,,,,,,,,,,,,,,,,,,,,,,,,,,,,,,,,,,,,,,,,,,,,,,,,1636055399.0603092,327.7930681705475,None,328.76330304145813,None,1,1,0.725571870803833,328.76330304145813,None,329.61973094940186,None,,,,,,,,,,,,,,,,,,,,,,,,,,,,,,,,,,,,,,,,,,,,,,,,,,,,,,,,,8000,001,02,2021_Nov_04_1446,task-switching-replication,2021.2.3,59.9951652608256,
1,3,untimed,02,standing,noswitch,congruant,solid,triangle,blue,stimuli/solid-rectangle.png,stimuli/blue-triangle.png,1,0,2,2,2,,,,,,,,,,,,,,,,,,,,,,,,,,,,,,,,,,,,,,,,,,,,,,,,,,,,,,,,,,,,,,,,,,,,,,,,,,,,,,,,,,,,,,,,,,,,,,,1636055400.9964654,329.8491840362549,None,330.8195149898529,None,1,1,0.5824611186981201,330.8195149898529,None,331.55595302581787,None,,,,,,,,,,,,,,,,,,,,,,,,,,,,,,,,,,,,,,,,,,,,,,,,,,,,,,,,,8000,001,02,2021_Nov_04_1446,task-switching-replication,2021.2.3,59.9951652608256,
1,4,untimed,02,standing,noswitch,incongruant,solid,triangle,yellow,stimuli/solid-rectangle.png,stimuli/yellow-triangle.png,2,0,3,3,3,,,,,,,,,,,,,,,,,,,,,,,,,,,,,,,,,,,,,,,,,,,,,,,,,,,,,,,,,,,,,,,,,,,,,,,,,,,,,,,,,,,,,,,,,,,,,,,1636055402.6936924,331.78535413742065,None,332.7561571598053,None,2,1,0.36203694343566895,332.7561571598053,None,333.25316095352173,None,,,,,,,,,,,,,,,,,,,,,,,,,,,,,,,,,,,,,,,,,,,,,,,,,,,,,,,,,8000,001,02,2021_Nov_04_1446,task-switching-replication,2021.2.3,59.9951652608256,
1,5,untimed,02,standing,switch,congruant,dashed,triangle,yellow,stimuli/dashed-rectangle.png,stimuli/yellow-triangle.png,2,0,4,4,4,,,,,,,,,,,,,,,,,,,,,,,,,,,,,,,,,,,,,,,,,,,,,,,,,,,,,,,,,,,,,,,,,,,,,,,,,,,,,,,,,,,,,,,,,,,,,,,1636055404.5692673,333.48212814331055,None,334.4519901275635,None,2,1,0.5510549545288086,334.4519901275635,None,335.12877106666565,None,,,,,,,,,,,,,,,,,,,,,,,,,,,,,,,,,,,,,,,,,,,,,,,,,,,,,,,,,8000,001,02,2021_Nov_04_1446,task-switching-replication,2021.2.3,59.9951652608256,
1,6,untimed,02,standing,noswitch,congruant,dashed,triangle,blue,stimuli/dashed-rectangle.png,stimuli/blue-triangle.png,2,0,5,5,5,,,,,,,,,,,,,,,,,,,,,,,,,,,,,,,,,,,,,,,,,,,,,,,,,,,,,,,,,,,,,,,,,,,,,,,,,,,,,,,,,,,,,,,,,,,,,,,1636055408.903084,335.3582751750946,None,336.3287899494171,None,2,1,3.0131609439849854,336.3287899494171,None,339.46255803108215,None,,,,,,,,,,,,,,,,,,,,,,,,,,,,,,,,,,,,,,,,,,,,,,,,,,,,,,,,,8000,001,02,2021_Nov_04_1446,task-switching-replication,2021.2.3,59.9951652608256,
1,7,untimed,02,standing,switch,congruant,solid,triangle,yellow,stimuli/solid-rectangle.png,stimuli/yellow-triangle.png,2,0,6,6,6,,,,,,,,,,,,,,,,,,,,,,,,,,,,,,,,,,,,,,,,,,,,,,,,,,,,,,,,,,,,,,,,,,,,,,,,,,,,,,,,,,,,,,,,,,,,,,,1636055411.497873,339.6919331550598,None,340.66221499443054,None,2,1,1.297766923904419,340.66221499443054,None,342.05746817588806,None,,,,,,,,,,,,,,,,,,,,,,,,,,,,,,,,,,,,,,,,,,,,,,,,,,,,,,,,,8000,001,02,2021_Nov_04_1446,task-switching-replication,2021.2.3,59.9951652608256,
1,8,untimed,02,standing,switch,incongruant,dashed,square,blue,stimuli/dashed-rectangle.png,stimuli/blue-square.png,1,0,7,7,7,,,,,,,,,,,,,,,,,,,,,,,,,,,,,,,,,,,,,,,,,,,,,,,,,,,,,,,,,,,,,,,,,,,,,,,,,,,,,,,,,,,,,,,,,,,,,,,1636055413.4977038,342.2870750427246,None,343.25853300094604,None,1,1,0.668586015701294,343.25853300094604,None,344.05639600753784,None,,,,,,,,,,,,,,,,,,,,,,,,,,,,,,,,,,,,,,,,,,,,,,,,,,,,,,,,,8000,001,02,2021_Nov_04_1446,task-switching-replication,2021.2.3,59.9951652608256,
1,9,untimed,02,standing,noswitch,incongruant,dashed,triangle,blue,stimuli/dashed-rectangle.png,stimuli/blue-triangle.png,2,0,8,8,8,,,,,,,,,,,,,,,,,,,,,,,,,,,,,,,,,,,,,,,,,,,,,,,,,,,,,,,,,,,,,,,,,,,,,,,,,,,,,,,,,,,,,,,,,,,,,,,1636055415.672837,344.285845041275,None,345.2564730644226,None,2,1,0.8593630790710449,345.2564730644226,None,346.2324221134186,None,,,,,,,,,,,,,,,,,,,,,,,,,,,,,,,,,,,,,,,,,,,,,,,,,,,,,,,,,8000,001,02,2021_Nov_04_1446,task-switching-replication,2021.2.3,59.9951652608256,
1,10,untimed,02,standing,switch,congruant,solid,square,yellow,stimuli/solid-rectangle.png,stimuli/yellow-square.png,2,0,9,9,9,,,,,,,,,,,,,,,,,,,,,,,,,,,,,,,,,,,,,,,,,,,,,,,,,,,,,,,,,,,,,,,,,,,,,,,,,,,,,,,,,,,,,,,,,,,,,,,1636055418.2706585,346.46258997917175,None,347.43415999412537,None,2,1,1.2468411922454834,347.43415999412537,None,348.830472946167,None,,,,,,,,,,,,,,,,,,,,,,,,,,,,,,,,,,,,,,,,,,,,,,,,,,,,,,,,,8000,001,02,2021_Nov_04_1446,task-switching-replication,2021.2.3,59.9951652608256,
1,11,untimed,02,standing,switch,incongruant,dashed,square,blue,stimuli/dashed-rectangle.png,stimuli/blue-square.png,1,0,10,10,10,,,,,0,0,0,0,,,,,,,,,,,,,,,,,,,,,,,,,,,,,,,,,,,,,,,,,,,,,,,,,,,,,,,,,,,,,,,,,,,,,,,,,,,,,,,,,,,,,,,1636055420.2662506,349.06013011932373,None,350.0298500061035,None,2,0,0.6390409469604492,350.0298500061035,None,,,350.797620177269,351.8185420036316,350.831041097641,None,,,,,,,,,,,,,,,,,,,,,,,,,,,,,,,,,,,,,,,,,,,,,,,,,,,,,8000,001,02,2021_Nov_04_1446,task-switching-replication,2021.2.3,59.9951652608256,
1,11,untimed,02,standing,switch,incongruant,dashed,square,blue,stimuli/dashed-rectangle.png,stimuli/blue-square.png,1,0,10,10,10,,,,,,,,,,,,,,,,,,,,,,,,,,,,,,,,,,,,,,,,,,,,,,,,,,,,,,,,,,,,,,,,,,,,,,,,,,,,,,,,,,,,,,,,,,,,,,,,,,,,,,,,,355.8354871273041,None,,,,,,,,,,,,,,,,,,,,,,,,,,,,,,,,,,,,,,,,,,,,,,,,,,,,,,,,,8000,001,02,2021_Nov_04_1446,task-switching-replication,2021.2.3,59.9951652608256,
1,12,untimed,02,standing,noswitch,congruant,dashed,square,yellow,stimuli/dashed-rectangle.png,stimuli/yellow-square.png,1,0,11,11,11,,,,,,,,,,,,,,,,,,,,,,,,,,,,,,,,,,,,,,,,,,,,,,,,,,,,,,,,,,,,,,,,,,,,,,,,,,,,,,,,,,,,,,,,,,,,,,,1636055429.280088,356.0326249599457,None,357.0035321712494,None,1,1,2.6861209869384766,357.0035321712494,None,359.83909797668457,None,,,,,,,,,,,,,,,,,,,,,,,,,,,,,,,,,,,,,,,,,,,,,,,,,,,,,,,,,8000,001,02,2021_Nov_04_1446,task-switching-replication,2021.2.3,59.9951652608256,
,,,02,,,,,,,,,,,,,,,,,,,,,,,,,,,,,,,,,,,,,,,,,,,,,,,,,,,,,,,,,,,,,,,,,,,,,,,,,,,,,,,,,,,,,,,,,,,,,,,,,,,,,,,,,,,,,,,,,,,,,,,,,,,,360.06988406181335,None,2,7.2458579540252686,360.06988406181335,None,,,,,,,,,,,,,,,,,,,,,,,,,,,,,,,,,,,,,,,,,,,,,,,8000,001,02,2021_Nov_04_1446,task-switching-replication,2021.2.3,59.9951652608256,
,,,02,,,,,,,,,,,,,,,,,,,,,,,,,,,,,,,,,,,,,,,,,,,,,,,,,,,,,,,,,,,,,,,,,,,,,,,,,,,,,,,,,,,,,,,,,,,,,,,,,,,,,,,,,,,,,,,,,,,,,,,,,,,,,,,,,,367.4116849899292,None,2,20.86699604988098,367.4116849899292,None,,,,,,,,,,,,,,,,,,,,,,,,,,,,,,,,,,,,,,,,,8000,001,02,2021_Nov_04_1446,task-switching-replication,2021.2.3,59.9951652608256,
1,1,timed,02,standing,buffer,buffer,solid,square,yellow,stimuli/solid-rectangle.png,stimuli/yellow-square.png,2,,,,,,,,,,,,,0,0,0,0,0,0,0,0,,,,,,,,,,,,,,,,,,,,,,,,,,,,,,,,,,,,,,,,,,,,,,,,,,,,,,,,,,,,,,,,,,,,,,,,,,,,,,,1636055460.4316108,,,,,,,,,,,,,,,,,,,,,,,,,,,,388.44716596603394,None,389.43450713157654,None,None,0,389.43450713157654,None,390.9720921039582,391.996150970459,391.0038540363312,None,,,,,,,,,,,,,,,,,,,,,,,,,,,,,8000,001,02,2021_Nov_04_1446,task-switching-replication,2021.2.3,59.9951652608256,
1,1,timed,02,standing,buffer,buffer,solid,square,yellow,stimuli/solid-rectangle.png,stimuli/yellow-square.png,2,,,,,,,,,,,,,0,0,0,0,,,,,,,,,,,,,,,,,,,,,,,,,,,,,,,,,,,,,,,,,,,,,,,,,,,,,,,,,,,,,,,,,,,,,,,,,,,,,,,,,,,,,,,,,,,,,396.01229596138,None,,,,,,,,,,,,,,,,,,,,,,,,,,,,,,,,,,,,,,,,,,,,,,,,,,,,,,,,,8000,001,02,2021_Nov_04_1446,task-switching-replication,2021.2.3,59.9951652608256,
1,2,timed,02,standing,switch,incongruant,dashed,square,blue,stimuli/dashed-rectangle.png,stimuli/blue-square.png,1,,,,,,,,,,,,,0,1,1,1,,,,,,,,,,,,,,,,,,,,,,,,,,,,,,,,,,,,,,,,,,,,,,,,,,,,,,,,,,,,,,,,,,,,,,,,,,,,,,,,,,,1636055467.2482684,,,,,,,,,,397.80796694755554,None,,,,,,,,,,,,,,,,,396.2088439464569,None,397.1969590187073,None,1,1,397.1969590187073,None,,,,,0.508782148361206,,,,,,,,,,,,,,,,,,,,,,,,,,,,8000,001,02,2021_Nov_04_1446,task-switching-replication,2021.2.3,59.9951652608256,
1,3,timed,02,standing,switch,congruant,solid,square,blue,stimuli/solid-rectangle.png,stimuli/blue-square.png,1,,,,,,,,,,,,,0,2,2,2,,,,,,,,,,,,,,,,,,,,,,,,,,,,,,,,,,,,,,,,,,,,,,,,,,,,,,,,,,,,,,,,,,,,,,,,,,,,,,,,,,,1636055469.3720179,,,,,,,,,,399.93140602111816,None,,,,,,,,,,,,,,,,,398.036817073822,None,399.0247130393982,None,1,1,399.0247130393982,None,,,,,0.7840001583099365,,,,,,,,,,,,,,,,,,,,,,,,,,,,8000,001,02,2021_Nov_04_1446,task-switching-replication,2021.2.3,59.9951652608256,
1,4,timed,02,standing,noswitch,incongruant,solid,triangle,yellow,stimuli/solid-rectangle.png,stimuli/yellow-triangle.png,2,,,,,,,,,,,,,0,3,3,3,,,,,,,,,,,,,,,,,,,,,,,,,,,,,,,,,,,,,,,,,,,,,,,,,,,,,,,,,,,,,,,,,,,,,,,,,,,,,,,,,,,1636055471.3812258,,,,,,,,,,401.9401979446411,None,,,,,,,,,,,,,,,,,400.15999817848206,None,401.1486670970917,None,2,1,401.1486670970917,None,,,,,0.6280839443206787,,,,,,,,,,,,,,,,,,,,,,,,,,,,8000,001,02,2021_Nov_04_1446,task-switching-replication,2021.2.3,59.9951652608256,
1,5,timed,02,standing,switch,incongruant,dashed,square,yellow,stimuli/dashed-rectangle.png,stimuli/yellow-square.png,1,,,,,,,,,,,,,0,4,4,4,,,,,0,0,0,0,,,,,,,,,,,,,,,,,,,,,,,,,,,,,,,,,,,,,,,,,,,,,,,,,,,,,,,,,,,,,,,,,,,,,,,,,,,1636055473.0300562,,,,,,,,,,,,403.56134498119354,404.5828959941864,403.59488010406494,None,,,,,,,,,,,,,402.1689989566803,None,403.15631103515625,None,2,0,403.15631103515625,None,,,,,0.3209421634674072,,,,,,,,,,,,,,,,,,,,,,,,,,,,8000,001,02,2021_Nov_04_1446,task-switching-replication,2021.2.3,59.9951652608256,
1,5,timed,02,standing,switch,incongruant,dashed,square,yellow,stimuli/dashed-rectangle.png,stimuli/yellow-square.png,1,,,,,,,,,,,,,0,4,4,4,,,,,,,,,,,,,,,,,,,,,,,,,,,,,,,,,,,,,,,,,,,,,,,,,,,,,,,,,,,,,,,,,,,,,,,,,,,,,,,,,,,,,,,,,,,,,408.5989770889282,None,,,,,,,,,,,,,,,,,,,,,,,,,,,,,,,,,,,,,,,,,,,,,,,,,,,,,,,,,8000,001,02,2021_Nov_04_1446,task-switching-replication,2021.2.3,59.9951652608256,
1,6,timed,02,standing,switch,incongruant,solid,square,yellow,stimuli/solid-rectangle.png,stimuli/yellow-square.png,2,,,,,,,,,,,,,0,5,5,5,0,0,0,0,,,,,,,,,,,,,,,,,,,,,,,,,,,,,,,,,,,,,,,,,,,,,,,,,,,,,,,,,,,,,,,,,,,,,,,,,,,,,,,1636055480.250162,,,,,,,,,,,,,,,,,,,,,,,,,,,,408.7957739830017,None,409.7831001281738,None,1,0,409.7831001281738,None,410.7816151380539,411.8015031814575,410.814022064209,None,0.8826210498809814,,,,,,,,,,,,,,,,,,,,,,,,,,,,8000,001,02,2021_Nov_04_1446,task-switching-replication,2021.2.3,59.9951652608256,
1,6,timed,02,standing,switch,incongruant,solid,square,yellow,stimuli/solid-rectangle.png,stimuli/yellow-square.png,2,,,,,,,,,,,,,0,5,5,5,,,,,,,,,,,,,,,,,,,,,,,,,,,,,,,,,,,,,,,,,,,,,,,,,,,,,,,,,,,,,,,,,,,,,,,,,,,,,,,,,,,,,,,,,,,,,415.82032012939453,None,,,,,,,,,,,,,,,,,,,,,,,,,,,,,,,,,,,,,,,,,,,,,,,,,,,,,,,,,8000,001,02,2021_Nov_04_1446,task-switching-replication,2021.2.3,59.9951652608256,
1,7,timed,02,standing,noswitch,incongruant,solid,triangle,blue,stimuli/solid-rectangle.png,stimuli/blue-triangle.png,1,,,,,,,,,,,,,0,6,6,6,0,0,0,0,,,,,,,,,,,,,,,,,,,,,,,,,,,,,,,,,,,,,,,,,,,,,,,,,,,,,,,,,,,,,,,,,,,,,,,,,,,,,,,1636055487.1189253,,,,,,,,,,,,,,,,,,,,,,,,,,,,416.01695704460144,None,417.00407814979553,None,2,0,417.00407814979553,None,417.6503361463547,418.66985297203064,417.68265199661255,None,0.544795036315918,,,,,,,,,,,,,,,,,,,,,,,,,,,,8000,001,02,2021_Nov_04_1446,task-switching-replication,2021.2.3,59.9951652608256,
1,7,timed,02,standing,noswitch,incongruant,solid,triangle,blue,stimuli/solid-rectangle.png,stimuli/blue-triangle.png,1,,,,,,,,,,,,,0,6,6,6,,,,,,,,,,,,,,,,,,,,,,,,,,,,,,,,,,,,,,,,,,,,,,,,,,,,,,,,,,,,,,,,,,,,,,,,,,,,,,,,,,,,,,,,,,,,,422.6884660720825,None,,,,,,,,,,,,,,,,,,,,,,,,,,,,,,,,,,,,,,,,,,,,,,,,,,,,,,,,,8000,001,02,2021_Nov_04_1446,task-switching-replication,2021.2.3,59.9951652608256,
1,8,timed,02,standing,noswitch,incongruant,solid,square,yellow,stimuli/solid-rectangle.png,stimuli/yellow-square.png,2,,,,,,,,,,,,,0,7,7,7,,,,,,,,,,,,,,,,,,,,,,,,,,,,,,,,,,,,,,,,,,,,,,,,,,,,,,,,,,,,,,,,,,,,,,,,,,,,,,,,,,,1636055494.2781234,,,,,,,,,,424.8380751609802,None,,,,,,,,,,,,,,,,,422.88490295410156,None,423.8717551231384,None,2,1,423.8717551231384,None,,,,,0.8491959571838379,,,,,,,,,,,,,,,,,,,,,,,,,,,,8000,001,02,2021_Nov_04_1446,task-switching-replication,2021.2.3,59.9951652608256,
1,9,timed,02,standing,switch,incongruant,dashed,square,blue,stimuli/dashed-rectangle.png,stimuli/blue-square.png,1,,,,,,,,,,,,,0,8,8,8,,,,,,,,,,,,,,,,,,,,,,,,,,,,,,,,,,,,,,,,,,,,,,,,,,,,,,,,,,,,,,,,,,,,,,,,,,,,,,,,,,,1636055496.5828574,,,,,,,,,,427.14156794548035,None,,,,,,,,,,,,,,,,,425.06673216819763,None,426.05457401275635,None,1,1,426.05457401275635,None,,,,,0.9287230968475342,,,,,,,,,,,,,,,,,,,,,,,,,,,,8000,001,02,2021_Nov_04_1446,task-switching-replication,2021.2.3,59.9951652608256,
1,10,timed,02,standing,noswitch,incongruant,dashed,triangle,yellow,stimuli/dashed-rectangle.png,stimuli/yellow-triangle.png,2,,,,,,,,,,,,,0,9,9,9,,,,,,,,,,,,,,,,,,,,,,,,,,,,,,,,,,,,,,,,,,,,,,,,,,,,,,,,,,,,,,,,,,,,,,,,,,,,,,,,,,,1636055498.292945,,,,,,,,,,428.85184502601624,None,,,,,,,,,,,,,,,,,427.37040305137634,None,428.3578779697418,None,2,1,428.3578779697418,None,,,,,0.35558295249938965,,,,,,,,,,,,,,,,,,,,,,,,,,,,8000,001,02,2021_Nov_04_1446,task-switching-replication,2021.2.3,59.9951652608256,
1,11,timed,02,standing,noswitch,incongruant,dashed,square,yellow,stimuli/dashed-rectangle.png,stimuli/yellow-square.png,1,,,,,,,,,,,,,0,10,10,10,,,,,,,,,,,,,,,,,,,,,,,,,,,,,,,,,,,,,,,,,,,,,,,,,,,,,,,,,,,,,,,,,,,,,,,,,,,,,,,,,,,1636055500.3581836,,,,,,,,,,430.9170391559601,None,,,,,,,,,,,,,,,,,429.08094811439514,None,430.069461107254,None,1,1,430.069461107254,None,,,,,0.7238609790802002,,,,,,,,,,,,,,,,,,,,,,,,,,,,8000,001,02,2021_Nov_04_1446,task-switching-replication,2021.2.3,59.9951652608256,
1,12,timed,02,standing,noswitch,incongruant,dashed,triangle,yellow,stimuli/dashed-rectangle.png,stimuli/yellow-triangle.png,2,,,,,,,,,,,,,0,11,11,11,,,,,,,,,,,,,,,,,,,,,,,,,,,,,,,,,,,,,,,,,,,,,,,,,,,,,,,,,,,,,,,,,,,,,,,,,,,,,,,,,,,1636055502.4204817,,,,,,,,,,432.98002099990845,None,,,,,,,,,,,,,,,,,431.1455080509186,None,432.13277101516724,None,2,1,432.13277101516724,None,,,,,0.7389130592346191,,,,,,,,,,,,,,,,,,,,,,,,,,,,8000,001,02,2021_Nov_04_1446,task-switching-replication,2021.2.3,59.9951652608256,
1,13,timed,02,standing,noswitch,congruant,dashed,triangle,blue,stimuli/dashed-rectangle.png,stimuli/blue-triangle.png,2,,,,,,,,,,,,,0,12,12,12,,,,,,,,,,,,,,,,,,,,,,,,,,,,,,,,,,,,,,,,,,,,,,,,,,,,,,,,,,,,,,,,,,,,,,,,,,,,,,,,,,,1636055504.2488894,,,,,,,,,,434.8083951473236,None,,,,,,,,,,,,,,,,,433.2091791629791,None,434.1973259449005,None,2,1,434.1973259449005,None,,,,,0.4903240203857422,,,,,,,,,,,,,,,,,,,,,,,,,,,,8000,001,02,2021_Nov_04_1446,task-switching-replication,2021.2.3,59.9951652608256,
1,14,timed,02,standing,switch,incongruant,solid,square,blue,stimuli/solid-rectangle.png,stimuli/blue-square.png,1,,,,,,,,,,,,,0,13,13,13,,,,,,,,,,,,,,,,,,,,,,,,,,,,,,,,,,,,,,,,,,,,,,,,,,,,,,,,,,,,,,,,,,,,,,,,,,,,,,,,,,,1636055506.5558226,,,,,,,,,,437.11520314216614,None,,,,,,,,,,,,,,,,,435.0379230976105,None,436.02774810791016,None,1,1,436.02774810791016,None,,,,,0.9734640121459961,,,,,,,,,,,,,,,,,,,,,,,,,,,,8000,001,02,2021_Nov_04_1446,task-switching-replication,2021.2.3,59.9951652608256,
1,15,timed,02,standing,noswitch,congruant,solid,triangle,blue,stimuli/solid-rectangle.png,stimuli/blue-triangle.png,1,,,,,,,,,,,,,0,14,14,14,0,0,0,0,,,,,,,,,,,,,,,,,,,,,,,,,,,,,,,,,,,,,,,,,,,,,,,,,,,,,,,,,,,,,,,,,,,,,,,,,,,,,,,1636055508.4419825,,,,,,,,,,,,,,,,,,,,,,,,,,,,437.3439710140228,None,438.3311810493469,None,2,0,438.3311810493469,None,438.97339618206024,439.9936089515686,439.0055000782013,None,0.5461969375610352,,,,,,,,,,,,,,,,,,,,,,,,,,,,8000,001,02,2021_Nov_04_1446,task-switching-replication,2021.2.3,59.9951652608256,
1,15,timed,02,standing,noswitch,congruant,solid,triangle,blue,stimuli/solid-rectangle.png,stimuli/blue-triangle.png,1,,,,,,,,,,,,,0,14,14,14,,,,,,,,,,,,,,,,,,,,,,,,,,,,,,,,,,,,,,,,,,,,,,,,,,,,,,,,,,,,,,,,,,,,,,,,,,,,,,,,,,,,,,,,,,,,,444.01258611679077,None,,,,,,,,,,,,,,,,,,,,,,,,,,,,,,,,,,,,,,,,,,,,,,,,,,,,,,,,,8000,001,02,2021_Nov_04_1446,task-switching-replication,2021.2.3,59.9951652608256,
1,16,timed,02,standing,switch,congruant,dashed,square,blue,stimuli/dashed-rectangle.png,stimuli/blue-square.png,1,,,,,,,,,,,,,0,15,15,15,,,,,,,,,,,,,,,,,,,,,,,,,,,,,,,,,,,,,,,,,,,,,,,,,,,,,,,,,,,,,,,,,,,,,,,,,,,,,,,,,,,1636055515.8436222,,,,,,,,,,446.402508020401,None,,,,,,,,,,,,,,,,,444.20912504196167,None,445.1968550682068,None,1,1,445.1968550682068,None,,,,,1.071847915649414,,,,,,,,,,,,,,,,,,,,,,,,,,,,8000,001,02,2021_Nov_04_1446,task-switching-replication,2021.2.3,59.9951652608256,
1,17,timed,02,standing,noswitch,incongruant,dashed,triangle,blue,stimuli/dashed-rectangle.png,stimuli/blue-triangle.png,2,,,,,,,,,,,,,0,16,16,16,,,,,,,,,,,,,,,,,,,,,,,,,,,,,,,,,,,,,,,,,,,,,,,,,,,,,,,,,,,,,,,,,,,,,,,,,,,,,,,,,,,1636055517.7909641,,,,,,,,,,448.34971809387207,None,,,,,,,,,,,,,,,,,446.6313979625702,None,447.61881399154663,None,2,1,447.61881399154663,None,,,,,0.5924980640411377,,,,,,,,,,,,,,,,,,,,,,,,,,,,8000,001,02,2021_Nov_04_1446,task-switching-replication,2021.2.3,59.9951652608256,
1,18,timed,02,standing,noswitch,congruant,dashed,triangle,yellow,stimuli/dashed-rectangle.png,stimuli/yellow-triangle.png,2,,,,,,,,,,,,,0,17,17,17,,,,,,,,,,,,,,,,,,,,,,,,,,,,,,,,,,,,,,,,,,,,,,,,,,,,,,,,,,,,,,,,,,,,,,,,,,,,,,,,,,,1636055519.7354407,,,,,,,,,,450.29491209983826,None,,,,,,,,,,,,,,,,,448.57847714424133,None,449.5657379627228,None,2,1,449.5657379627228,None,,,,,0.5746967792510986,,,,,,,,,,,,,,,,,,,,,,,,,,,,8000,001,02,2021_Nov_04_1446,task-switching-replication,2021.2.3,59.9951652608256,
1,19,timed,02,standing,noswitch,incongruant,dashed,square,yellow,stimuli/dashed-rectangle.png,stimuli/yellow-square.png,1,,,,,,,,,,,,,0,18,18,18,,,,,,,,,,,,,,,,,,,,,,,,,,,,,,,,,,,,,,,,,,,,,,,,,,,,,,,,,,,,,,,,,,,,,,,,,,,,,,,,,,,1636055521.74179,,,,,,,,,,452.3004319667816,None,,,,,,,,,,,,,,,,,450.52382802963257,None,451.51114106178284,None,1,1,451.51114106178284,None,,,,,0.6359150409698486,,,,,,,,,,,,,,,,,,,,,,,,,,,,8000,001,02,2021_Nov_04_1446,task-switching-replication,2021.2.3,59.9951652608256,
1,20,timed,02,standing,switch,incongruant,solid,triangle,yellow,stimuli/solid-rectangle.png,stimuli/yellow-triangle.png,2,,,,,,,,,,,,,0,19,19,19,0,0,0,0,,,,,,,,,,,,,,,,,,,,,,,,,,,,,,,,,,,,,,,,,,,,,,,,,,,,,,,,,,,,,,,,,,,,,,,,,,,,,,,1636055524.5154672,,,,,,,,,,,,,,,,,,,,,,,,,,,,452.52923917770386,None,453.51715111732483,None,None,0,453.51715111732483,None,455.0560211658478,456.08170795440674,455.0871031284332,None,,,,,,,,,,,,,,,,,,,,,,,,,,,,,8000,001,02,2021_Nov_04_1446,task-switching-replication,2021.2.3,59.9951652608256,
1,20,timed,02,standing,switch,incongruant,solid,triangle,yellow,stimuli/solid-rectangle.png,stimuli/yellow-triangle.png,2,,,,,,,,,,,,,0,19,19,19,,,,,,,,,,,,,,,,,,,,,,,,,,,,,,,,,,,,,,,,,,,,,,,,,,,,,,,,,,,,,,,,,,,,,,,,,,,,,,,,,,,,,,,,,,,,,460.0978579521179,None,,,,,,,,,,,,,,,,,,,,,,,,,,,,,,,,,,,,,,,,,,,,,,,,,,,,,,,,,8000,001,02,2021_Nov_04_1446,task-switching-replication,2021.2.3,59.9951652608256,
1,21,timed,02,standing,noswitch,congruant,solid,triangle,yellow,stimuli/solid-rectangle.png,stimuli/yellow-triangle.png,2,,,,,,,,,,,,,0,20,20,20,0,0,0,0,,,,,,,,,,,,,,,,,,,,,,,,,,,,,,,,,,,,,,,,,,,,,,,,,,,,,,,,,,,,,,,,,,,,,,,,,,,,,,,1636055532.279753,,,,,,,,,,,,,,,,,,,,,,,,,,,,460.2951259613037,None,461.28231716156006,None,None,0,461.28231716156006,None,462.8202640533448,463.8383860588074,462.8512330055237,None,,,,,,,,,,,,,,,,,,,,,,,,,,,,,8000,001,02,2021_Nov_04_1446,task-switching-replication,2021.2.3,59.9951652608256,
1,21,timed,02,standing,noswitch,congruant,solid,triangle,yellow,stimuli/solid-rectangle.png,stimuli/yellow-triangle.png,2,,,,,,,,,,,,,0,20,20,20,,,,,,,,,,,,,,,,,,,,,,,,,,,,,,,,,,,,,,,,,,,,,,,,,,,,,,,,,,,,,,,,,,,,,,,,,,,,,,,,,,,,,,,,,,,,,467.85740900039673,None,,,,,,,,,,,,,,,,,,,,,,,,,,,,,,,,,,,,,,,,,,,,,,,,,,,,,,,,,8000,001,02,2021_Nov_04_1446,task-switching-replication,2021.2.3,59.9951652608256,
1,22,timed,02,standing,noswitch,incongruant,solid,square,blue,stimuli/solid-rectangle.png,stimuli/blue-square.png,1,,,,,,,,,,,,,0,21,21,21,,,,,,,,,,,,,,,,,,,,,,,,,,,,,,,,,,,,,,,,,,,,,,,,,,,,,,,,,,,,,,,,,,,,,,,,,,,,,,,,,,,1636055539.2140913,,,,,,,,,,469.77286314964294,None,,,,,,,,,,,,,,,,,468.05403304100037,None,469.042200088501,None,1,1,469.042200088501,None,,,,,0.5969491004943848,,,,,,,,,,,,,,,,,,,,,,,,,,,,8000,001,02,2021_Nov_04_1446,task-switching-replication,2021.2.3,59.9951652608256,
1,23,timed,02,standing,switch,incongruant,dashed,triangle,blue,stimuli/dashed-rectangle.png,stimuli/blue-triangle.png,2,,,,,,,,,,,,,0,22,22,22,,,,,,,,,,,,,,,,,,,,,,,,,,,,,,,,,,,,,,,,,,,,,,,,,,,,,,,,,,,,,,,,,,,,,,,,,,,,,,,,,,,1636055541.10442,,,,,,,,,,471.66316294670105,None,,,,,,,,,,,,,,,,,470.00181102752686,None,470.989305973053,None,2,1,470.989305973053,None,,,,,0.5302948951721191,,,,,,,,,,,,,,,,,,,,,,,,,,,,8000,001,02,2021_Nov_04_1446,task-switching-replication,2021.2.3,59.9951652608256,
1,24,timed,02,standing,switch,incongruant,solid,triangle,blue,stimuli/solid-rectangle.png,stimuli/blue-triangle.png,1,,,,,,,,,,,,,0,23,23,23,0,0,0,0,,,,,,,,,,,,,,,,,,,,,,,,,,,,,,,,,,,,,,,,,,,,,,,,,,,,,,,,,,,,,,,,,,,,,,,,,,,,,,,1636055542.9899647,,,,,,,,,,,,,,,,,,,,,,,,,,,,471.8923759460449,None,472.87955713272095,None,2,0,472.87955713272095,None,473.52132403850555,474.5413980484009,473.55418515205383,None,0.5368258953094482,,,,,,,,,,,,,,,,,,,,,,,,,,,,8000,001,02,2021_Nov_04_1446,task-switching-replication,2021.2.3,59.9951652608256,
1,24,timed,02,standing,switch,incongruant,solid,triangle,blue,stimuli/solid-rectangle.png,stimuli/blue-triangle.png,1,,,,,,,,,,,,,0,23,23,23,,,,,,,,,,,,,,,,,,,,,,,,,,,,,,,,,,,,,,,,,,,,,,,,,,,,,,,,,,,,,,,,,,,,,,,,,,,,,,,,,,,,,,,,,,,,,478.558886051178,None,,,,,,,,,,,,,,,,,,,,,,,,,,,,,,,,,,,,,,,,,,,,,,,,,,,,,,,,,8000,001,02,2021_Nov_04_1446,task-switching-replication,2021.2.3,59.9951652608256,
1,1,experiment,02,standing,buffer,buffer,dashed,square,yellow,stimuli/dashed-rectangle.png,stimuli/yellow-square.png,1,,,,,,,,,,,,,,,,,,,,,,,,,0,0,0,0,0,0,0,0,0,0,0,0,,,,,,,,,478.76798009872437,None,2,3.2662689685821533,478.76798009872437,None,,,,,,,,,,,,,,,,,,,,,,,,,,,,,,,,,,,,,,,,,,,,,,,,,1636055564.3500197,,,,,,,,,,494.910001039505,None,,,,,,,,,,,,,,,,,,,,,,,,,,,,,,482.14126896858215,None,2,6.507100820541382,482.14126896858215,None,488.7810971736908,None,2,4.295176982879639,488.7810971736908,None,493.25189113616943,None,494.23941802978516,None,1,1,0.5576119422912598,494.23941802978516,None,,,,,,,8000,001,02,2021_Nov_04_1446,task-switching-replication,2021.2.3,59.9951652608256,
1,2,experiment,02,standing,noswitch,incongruant,dashed,triangle,blue,stimuli/dashed-rectangle.png,stimuli/blue-triangle.png,2,,,,,,,,,,,,,,,,,,,,,,,,,0,0,0,0,0,0,0,0,0,1,1,1,,,,,,,,,,,,,,,,,,,,,,,,,,,,,,,,,,,,,,,,,,,,,,,,,,,,,,,,,,,,,,,1636055566.0003402,,,,,,,,,,496.55960512161255,None,,,,,,,,,,,,,,,,,,,,,,,,,,,,,,,,,,,,,,,,,,495.1392471790314,None,496.12662506103516,None,2,1,0.3171839714050293,496.12662506103516,None,,,,,,,8000,001,02,2021_Nov_04_1446,task-switching-replication,2021.2.3,59.9951652608256,
1,3,experiment,02,standing,noswitch,incongruant,dashed,square,yellow,stimuli/dashed-rectangle.png,stimuli/yellow-square.png,1,,,,,,,,,,,,,,,,,,,,,,,,,0,0,0,0,0,0,0,0,0,2,2,2,,,,,,,,,,,,,,,,,,,,,,,,,,,,,,,,,,,,,,,,,,,,,,,,,,,,,,,,,,,,,,,1636055567.832839,,,,,,,,,,498.3916189670563,None,,,,,,,,,,,,,,,,,,,,,,,,,,,,,,,,,,,,,,,,,,496.78875207901,None,497.77585911750793,None,1,1,0.49109792709350586,497.77585911750793,None,,,,,,,8000,001,02,2021_Nov_04_1446,task-switching-replication,2021.2.3,59.9951652608256,
1,4,experiment,02,standing,switch,congruant,solid,triangle,blue,stimuli/solid-rectangle.png,stimuli/blue-triangle.png,1,,,,,,,,,,,,,,,,,,,,,,,,,0,0,0,0,0,0,0,0,0,3,3,3,0,0,0,0,,,,,,,,,,,,,,,,,,,,,,,,,,,,,,,,,,,,,,,,,,,,,,,,,,,,,,,,,,,1636055570.0151734,,,,,,,,,,,,,,,,,,,,,,,,,,,,,,,,,,,,500.5465611219406,501.5672731399536,500.5791039466858,None,,,,,,,,,,,,,,498.62080001831055,None,499.6079640388489,None,2,0,0.8541290760040283,499.6079640388489,None,,,,,,,8000,001,02,2021_Nov_04_1446,task-switching-replication,2021.2.3,59.9951652608256,
1,4,experiment,02,standing,switch,congruant,solid,triangle,blue,stimuli/solid-rectangle.png,stimuli/blue-triangle.png,1,,,,,,,,,,,,,,,,,,,,,,,,,0,0,0,0,0,0,0,0,0,3,3,3,,,,,,,,,,,,,,,,,,,,,,,,,,,,,,,,,,,,,,,,,,,,,,,,,,,,,,,,,,,,,,,,,,,,,,,,,505.58523511886597,None,,,,,,,,,,,,,,,,,,,,,,,,,,,,,,,,,,,,,,,,,,,,,,,,,,,,,,,,,8000,001,02,2021_Nov_04_1446,task-switching-replication,2021.2.3,59.9951652608256,
1,5,experiment,02,standing,switch,incongruant,dashed,triangle,yellow,stimuli/dashed-rectangle.png,stimuli/yellow-triangle.png,2,,,,,,,,,,,,,,,,,,,,,,,,,0,0,0,0,0,0,0,0,0,4,4,4,,,,,0,0,0,0,,,,,,,,,,,,,,,,,,,,,,,,,,,,,,,,,,,,,,,,,,,,,,,,,,,,,,,1636055577.1194916,,,,,,,,,,,,507.65094316005707,508.67137718200684,507.68333315849304,None,,,,,,,,,,,,,,,,,,,,,,,,,,,,,,,,,,,,,,505.7814040184021,None,506.76862502098083,None,1,0,0.7613379955291748,506.76862502098083,None,,,,,,,8000,001,02,2021_Nov_04_1446,task-switching-replication,2021.2.3,59.9951652608256,
1,5,experiment,02,standing,switch,incongruant,dashed,triangle,yellow,stimuli/dashed-rectangle.png,stimuli/yellow-triangle.png,2,,,,,,,,,,,,,,,,,,,,,,,,,0,0,0,0,0,0,0,0,0,4,4,4,,,,,,,,,,,,,,,,,,,,,,,,,,,,,,,,,,,,,,,,,,,,,,,,,,,,,,,,,,,,,,,,,,,,,,,,,512.6854929924011,None,,,,,,,,,,,,,,,,,,,,,,,,,,,,,,,,,,,,,,,,,,,,,,,,,,,,,,,,,8000,001,02,2021_Nov_04_1446,task-switching-replication,2021.2.3,59.9951652608256,
1,6,experiment,02,standing,switch,congruant,solid,square,yellow,stimuli/solid-rectangle.png,stimuli/yellow-square.png,2,,,,,,,,,,,,,,,,,,,,,,,,,0,0,0,0,0,0,0,0,0,5,5,5,0,0,0,0,,,,,,,,,,,,,,,,,,,,,,,,,,,,,,,,,,,,,,,,,,,,,,,,,,,,,,,,,,,1636055584.2759037,,,,,,,,,,,,,,,,,,,,,,,,,,,,,,,,,,,,514.8071991205215,515.8278770446777,514.840252161026,None,,,,,,,,,,,,,,512.8818140029907,None,513.8690781593323,None,1,0,0.8339180946350098,513.8690781593323,None,,,,,,,8000,001,02,2021_Nov_04_1446,task-switching-replication,2021.2.3,59.9951652608256,
1,6,experiment,02,standing,switch,congruant,solid,square,yellow,stimuli/solid-rectangle.png,stimuli/yellow-square.png,2,,,,,,,,,,,,,,,,,,,,,,,,,0,0,0,0,0,0,0,0,0,5,5,5,,,,,,,,,,,,,,,,,,,,,,,,,,,,,,,,,,,,,,,,,,,,,,,,,,,,,,,,,,,,,,,,,,,,,,,,,519.8475170135498,None,,,,,,,,,,,,,,,,,,,,,,,,,,,,,,,,,,,,,,,,,,,,,,,,,,,,,,,,,8000,001,02,2021_Nov_04_1446,task-switching-replication,2021.2.3,59.9951652608256,
1,7,experiment,02,standing,switch,congruant,dashed,triangle,yellow,stimuli/dashed-rectangle.png,stimuli/yellow-triangle.png,2,,,,,,,,,,,,,,,,,,,,,,,,,0,0,0,0,0,0,0,0,0,6,6,6,,,,,,,,,,,,,,,,,,,,,,,,,,,,,,,,,,,,,,,,,,,,,,,,,,,,,,,,,,,,,,,1636055591.4388938,,,,,,,,,,521.9982950687408,None,,,,,,,,,,,,,,,,,,,,,,,,,,,,,,,,,,,,,,,,,,520.0440871715546,None,521.0322480201721,None,2,1,0.8521249294281006,521.0322480201721,None,,,,,,,8000,001,02,2021_Nov_04_1446,task-switching-replication,2021.2.3,59.9951652608256,
1,8,experiment,02,standing,noswitch,incongruant,dashed,square,yellow,stimuli/dashed-rectangle.png,stimuli/yellow-square.png,1,,,,,,,,,,,,,,,,,,,,,,,,,0,0,0,0,0,0,0,0,0,7,7,7,,,,,,,,,,,,,,,,,,,,,,,,,,,,,,,,,,,,,,,,,,,,,,,,,,,,,,,,,,,,,,,1636055593.1480536,,,,,,,,,,523.7082209587097,None,,,,,,,,,,,,,,,,,,,,,,,,,,,,,,,,,,,,,,,,,,522.227303981781,None,523.2150821685791,None,1,1,0.37816381454467773,523.2150821685791,None,,,,,,,8000,001,02,2021_Nov_04_1446,task-switching-replication,2021.2.3,59.9951652608256,
1,9,experiment,02,standing,noswitch,congruant,dashed,square,blue,stimuli/dashed-rectangle.png,stimuli/blue-square.png,1,,,,,,,,,,,,,,,,,,,,,,,,,0,0,0,0,0,0,0,0,0,8,8,8,,,,,,,,,,,,,,,,,,,,,,,,,,,,,,,,,,,,,,,,,,,,,,,,,,,,,,,,,,,,,,,1636055595.2728598,,,,,,,,,,525.832277059555,None,,,,,,,,,,,,,,,,,,,,,,,,,,,,,,,,,,,,,,,,,,523.937301158905,None,524.9250359535217,None,1,1,0.7749080657958984,524.9250359535217,None,,,,,,,8000,001,02,2021_Nov_04_1446,task-switching-replication,2021.2.3,59.9951652608256,
1,10,experiment,02,standing,noswitch,incongruant,dashed,triangle,yellow,stimuli/dashed-rectangle.png,stimuli/yellow-triangle.png,2,,,,,,,,,,,,,,,,,,,,,,,,,0,0,0,0,0,0,0,0,0,9,9,9,,,,,,,,,,,,,,,,,,,,,,,,,,,,,,,,,,,,,,,,,,,,,,,,,,,,,,,,,,,,,,,1636055596.9260123,,,,,,,,,,527.4848320484161,None,,,,,,,,,,,,,,,,,,,,,,,,,,,,,,,,,,,,,,,,,,526.0618460178375,None,527.0495300292969,None,2,1,0.30681800842285156,527.0495300292969,None,,,,,,,8000,001,02,2021_Nov_04_1446,task-switching-replication,2021.2.3,59.9951652608256,
1,11,experiment,02,standing,switch,congruant,solid,triangle,yellow,stimuli/solid-rectangle.png,stimuli/yellow-triangle.png,2,,,,,,,,,,,,,,,,,,,,,,,,,0,0,0,0,0,0,0,0,0,10,10,10,,,,,,,,,,,,,,,,,,,,,,,,,,,,,,,,,,,,,,,,,,,,,,,,,,,,,,,,,,,,,,,1636055598.9299533,,,,,,,,,,529.4894859790802,None,,,,,,,,,,,,,,,,,,,,,,,,,,,,,,,,,,,,,,,,,,527.7132930755615,None,528.7013330459595,None,2,1,0.6767261028289795,528.7013330459595,None,,,,,,,8000,001,02,2021_Nov_04_1446,task-switching-replication,2021.2.3,59.9951652608256,
1,12,experiment,02,standing,switch,congruant,dashed,triangle,blue,stimuli/dashed-rectangle.png,stimuli/blue-triangle.png,2,,,,,,,,,,,,,,,,,,,,,,,,,0,0,0,0,0,0,0,0,0,11,11,11,,,,,,,,,,,,,,,,,,,,,,,,,,,,,,,,,,,,,,,,,,,,,,,,,,,,,,,,,,,,,,,1636055600.9348512,,,,,,,,,,531.4944870471954,None,,,,,,,,,,,,,,,,,,,,,,,,,,,,,,,,,,,,,,,,,,529.7188069820404,None,530.7061760425568,None,2,1,0.6798169612884521,530.7061760425568,None,,,,,,,8000,001,02,2021_Nov_04_1446,task-switching-replication,2021.2.3,59.9951652608256,
1,13,experiment,02,standing,switch,congruant,solid,triangle,yellow,stimuli/solid-rectangle.png,stimuli/yellow-triangle.png,2,,,,,,,,,,,,,,,,,,,,,,,,,0,0,0,0,0,0,0,0,0,12,12,12,0,0,0,0,,,,,,,,,,,,,,,,,,,,,,,,,,,,,,,,,,,,,,,,,,,,,,,,,,,,,,,,,,,1636055603.121707,,,,,,,,,,,,,,,,,,,,,,,,,,,,,,,,,,,,533.653125166893,534.6733250617981,533.6853489875793,None,,,,,,,,,,,,,,531.7233190536499,None,532.7106320858002,None,1,0,0.8162729740142822,532.7106320858002,None,,,,,,,8000,001,02,2021_Nov_04_1446,task-switching-replication,2021.2.3,59.9951652608256,
1,13,experiment,02,standing,switch,congruant,solid,triangle,yellow,stimuli/solid-rectangle.png,stimuli/yellow-triangle.png,2,,,,,,,,,,,,,,,,,,,,,,,,,0,0,0,0,0,0,0,0,0,12,12,12,,,,,,,,,,,,,,,,,,,,,,,,,,,,,,,,,,,,,,,,,,,,,,,,,,,,,,,,,,,,,,,,,,,,,,,,,538.6892821788788,None,,,,,,,,,,,,,,,,,,,,,,,,,,,,,,,,,,,,,,,,,,,,,,,,,,,,,,,,,8000,001,02,2021_Nov_04_1446,task-switching-replication,2021.2.3,59.9951652608256,
1,14,experiment,02,standing,switch,congruant,dashed,triangle,blue,stimuli/dashed-rectangle.png,stimuli/blue-triangle.png,2,,,,,,,,,,,,,,,,,,,,,,,,,0,0,0,0,0,0,0,0,0,13,13,13,,,,,,,,,,,,,,,,,,,,,,,,,,,,,,,,,,,,,,,,,,,,,,,,,,,,,,,,,,,,,,,1636055610.2845912,,,,,,,,,,540.8434360027313,None,,,,,,,,,,,,,,,,,,,,,,,,,,,,,,,,,,,,,,,,,,538.8858671188354,None,539.873496055603,None,2,1,0.845736026763916,539.873496055603,None,,,,,,,8000,001,02,2021_Nov_04_1446,task-switching-replication,2021.2.3,59.9951652608256,
1,15,experiment,02,standing,noswitch,congruant,dashed,triangle,blue,stimuli/dashed-rectangle.png,stimuli/blue-triangle.png,2,,,,,,,,,,,,,,,,,,,,,,,,,0,0,0,0,0,0,0,0,0,14,14,14,,,,,,,,,,,,,,,,,,,,,,,,,,,,,,,,,,,,,,,,,,,,,,,,,,,,,,,,,,,,,,,1636055612.112336,,,,,,,,,,542.6718640327454,None,,,,,,,,,,,,,,,,,,,,,,,,,,,,,,,,,,,,,,,,,,541.0726430416107,None,542.0607390403748,None,2,1,0.47623586654663086,542.0607390403748,None,,,,,,,8000,001,02,2021_Nov_04_1446,task-switching-replication,2021.2.3,59.9951652608256,
1,16,experiment,02,standing,noswitch,incongruant,dashed,square,yellow,stimuli/dashed-rectangle.png,stimuli/yellow-square.png,1,,,,,,,,,,,,,,,,,,,,,,,,,0,0,0,0,0,0,0,0,0,15,15,15,,,,,,,,,,,,,,,,,,,,,,,,,,,,,,,,,,,,,,,,,,,,,,,,,,,,,,,,,,,,,,,1636055614.1790435,,,,,,,,,,544.7379360198975,None,,,,,,,,,,,,,,,,,,,,,,,,,,,,,,,,,,,,,,,,,,542.9009041786194,None,543.8889901638031,None,1,1,0.7238869667053223,543.8889901638031,None,,,,,,,8000,001,02,2021_Nov_04_1446,task-switching-replication,2021.2.3,59.9951652608256,
1,17,experiment,02,standing,switch,congruant,solid,square,blue,stimuli/solid-rectangle.png,stimuli/blue-square.png,1,,,,,,,,,,,,,,,,,,,,,,,,,0,0,0,0,0,0,0,0,0,16,16,16,0,0,0,0,,,,,,,,,,,,,,,,,,,,,,,,,,,,,,,,,,,,,,,,,,,,,,,,,,,,,,,,,,,1636055616.9536254,,,,,,,,,,,,,,,,,,,,,,,,,,,,,,,,,,,,547.4941291332245,548.5130980014801,547.5252981185913,None,,,,,,,,,,,,,,544.9665820598602,None,545.9550361633301,None,None,0,,545.9550361633301,None,,,,,,,8000,001,02,2021_Nov_04_1446,task-switching-replication,2021.2.3,59.9951652608256,
1,17,experiment,02,standing,switch,congruant,solid,square,blue,stimuli/solid-rectangle.png,stimuli/blue-square.png,1,,,,,,,,,,,,,,,,,,,,,,,,,0,0,0,0,0,0,0,0,0,16,16,16,,,,,,,,,,,,,,,,,,,,,,,,,,,,,,,,,,,,,,,,,,,,,,,,,,,,,,,,,,,,,,,,,,,,,,,,,552.5331571102142,None,,,,,,,,,,,,,,,,,,,,,,,,,,,,,,,,,,,,,,,,,,,,,,,,,,,,,,,,,8000,001,02,2021_Nov_04_1446,task-switching-replication,2021.2.3,59.9951652608256,
1,18,experiment,02,standing,noswitch,incongruant,solid,square,yellow,stimuli/solid-rectangle.png,stimuli/yellow-square.png,2,,,,,,,,,,,,,,,,,,,,,,,,,0,0,0,0,0,0,0,0,0,17,17,17,0,0,0,0,,,,,,,,,,,,,,,,,,,,,,,,,,,,,,,,,,,,,,,,,,,,,,,,,,,,,,,,,,,1636055624.5988507,,,,,,,,,,,,,,,,,,,,,,,,,,,,,,,,,,,,555.1301699876785,556.1515791416168,555.1634759902954,None,,,,,,,,,,,,,,552.729660987854,None,553.7179081439972,None,1,0,1.3241510391235352,553.7179081439972,None,,,,,,,8000,001,02,2021_Nov_04_1446,task-switching-replication,2021.2.3,59.9951652608256,
1,18,experiment,02,standing,noswitch,incongruant,solid,square,yellow,stimuli/solid-rectangle.png,stimuli/yellow-square.png,2,,,,,,,,,,,,,,,,,,,,,,,,,0,0,0,0,0,0,0,0,0,17,17,17,,,,,,,,,,,,,,,,,,,,,,,,,,,,,,,,,,,,,,,,,,,,,,,,,,,,,,,,,,,,,,,,,,,,,,,,,560.1700739860535,None,,,,,,,,,,,,,,,,,,,,,,,,,,,,,,,,,,,,,,,,,,,,,,,,,,,,,,,,,8000,001,02,2021_Nov_04_1446,task-switching-replication,2021.2.3,59.9951652608256,
1,19,experiment,02,standing,noswitch,congruant,solid,square,yellow,stimuli/solid-rectangle.png,stimuli/yellow-square.png,2,,,,,,,,,,,,,,,,,,,,,,,,,0,0,0,0,0,0,0,0,0,18,18,18,0,0,0,0,,,,,,,,,,,,,,,,,,,,,,,,,,,,,,,,,,,,,,,,,,,,,,,,,,,,,,,,,,,1636055631.7607,,,,,,,,,,,,,,,,,,,,,,,,,,,,,,,,,,,,562.3588850736618,563.4107179641724,562.3874020576477,None,,,,,,,,,,,,,,560.3666310310364,None,561.3542511463165,None,1,0,0.8205099105834961,561.3542511463165,None,,,,,,,8000,001,02,2021_Nov_04_1446,task-switching-replication,2021.2.3,59.9951652608256,
1,19,experiment,02,standing,noswitch,congruant,solid,square,yellow,stimuli/solid-rectangle.png,stimuli/yellow-square.png,2,,,,,,,,,,,,,,,,,,,,,,,,,0,0,0,0,0,0,0,0,0,18,18,18,,,,,,,,,,,,,,,,,,,,,,,,,,,,,,,,,,,,,,,,,,,,,,,,,,,,,,,,,,,,,,,,,,,,,,,,,567.3226201534271,None,,,,,,,,,,,,,,,,,,,,,,,,,,,,,,,,,,,,,,,,,,,,,,,,,,,,,,,,,8000,001,02,2021_Nov_04_1446,task-switching-replication,2021.2.3,59.9951652608256,
1,20,experiment,02,standing,switch,congruant,dashed,triangle,blue,stimuli/dashed-rectangle.png,stimuli/blue-triangle.png,2,,,,,,,,,,,,,,,,,,,,,,,,,0,0,0,0,0,0,0,0,0,19,19,19,,,,,0,0,0,0,,,,,,,,,,,,,,,,,,,,,,,,,,,,,,,,,,,,,,,,,,,,,,,,,,,,,,,1636055639.538115,,,,,,,,,,,,570.0799979686738,571.099406003952,570.1120710372925,None,,,,,,,,,,,,,,,,,,,,,,,,,,,,,,,,,,,,,,567.5516221523285,None,568.5399081707001,None,None,0,,568.5399081707001,None,,,,,,,8000,001,02,2021_Nov_04_1446,task-switching-replication,2021.2.3,59.9951652608256,
1,20,experiment,02,standing,switch,congruant,dashed,triangle,blue,stimuli/dashed-rectangle.png,stimuli/blue-triangle.png,2,,,,,,,,,,,,,,,,,,,,,,,,,0,0,0,0,0,0,0,0,0,19,19,19,,,,,,,,,,,,,,,,,,,,,,,,,,,,,,,,,,,,,,,,,,,,,,,,,,,,,,,,,,,,,,,,,,,,,,,,,575.1156561374664,None,,,,,,,,,,,,,,,,,,,,,,,,,,,,,,,,,,,,,,,,,,,,,,,,,,,,,,,,,8000,001,02,2021_Nov_04_1446,task-switching-replication,2021.2.3,59.9951652608256,
1,21,experiment,02,standing,noswitch,incongruant,dashed,square,yellow,stimuli/dashed-rectangle.png,stimuli/yellow-square.png,1,,,,,,,,,,,,,,,,,,,,,,,,,0,0,0,0,0,0,0,0,0,20,20,20,,,,,,,,,,,,,,,,,,,,,,,,,,,,,,,,,,,,,,,,,,,,,,,,,,,,,,,,,,,,,,,1636055646.590396,,,,,,,,,,577.148754119873,None,,,,,,,,,,,,,,,,,,,,,,,,,,,,,,,,,,,,,,,,,,575.3122470378876,None,576.2997500896454,None,1,1,0.6910910606384277,576.2997500896454,None,,,,,,,8000,001,02,2021_Nov_04_1446,task-switching-replication,2021.2.3,59.9951652608256,
1,22,experiment,02,standing,switch,incongruant,solid,triangle,yellow,stimuli/solid-rectangle.png,stimuli/yellow-triangle.png,2,,,,,,,,,,,,,,,,,,,,,,,,,0,0,0,0,0,0,0,0,0,21,21,21,,,,,,,,,,,,,,,,,,,,,,,,,,,,,,,,,,,,,,,,,,,,,,,,,,,,,,,,,,,,,,,1636055648.4192855,,,,,,,,,,578.9777910709381,None,,,,,,,,,,,,,,,,,,,,,,,,,,,,,,,,,,,,,,,,,,577.3776609897614,None,578.3660230636597,None,2,1,0.48763608932495117,578.3660230636597,None,,,,,,,8000,001,02,2021_Nov_04_1446,task-switching-replication,2021.2.3,59.9951652608256,
1,23,experiment,02,standing,switch,congruant,dashed,triangle,yellow,stimuli/dashed-rectangle.png,stimuli/yellow-triangle.png,2,,,,,,,,,,,,,,,,,,,,,,,,,0,0,0,0,0,0,0,0,0,22,22,22,,,,,,,,,,,,,,,,,,,,,,,,,,,,,,,,,,,,,,,,,,,,,,,,,,,,,,,,,,,,,,,1636055650.3056328,,,,,,,,,,580.8652491569519,None,,,,,,,,,,,,,,,,,,,,,,,,,,,,,,,,,,,,,,,,,,579.2065870761871,None,580.1947619915009,None,2,1,0.5649988651275635,580.1947619915009,None,,,,,,,8000,001,02,2021_Nov_04_1446,task-switching-replication,2021.2.3,59.9951652608256,
1,24,experiment,02,standing,switch,congruant,solid,triangle,yellow,stimuli/solid-rectangle.png,stimuli/yellow-triangle.png,2,,,,,,,,,,,,,,,,,,,,,,,,,0,0,0,0,0,0,0,0,0,23,23,23,,,,,,,,,,,,,,,,,,,,,,,,,,,,,,,,,,,,,,,,,,,,,,,,,,,,,,,,,,,,,,,1636055652.2511592,,,,,,,,,,582.8107571601868,None,,,,,,,,,,,,,,,,,,,,,,,,,,,,,,,,,,,,,,,,,,581.0940411090851,None,582.0816421508789,None,2,1,0.6301250457763672,582.0816421508789,None,,,,,,,8000,001,02,2021_Nov_04_1446,task-switching-replication,2021.2.3,59.9951652608256,
1,25,experiment,02,standing,noswitch,incongruant,solid,square,blue,stimuli/solid-rectangle.png,stimuli/blue-square.png,1,,,,,,,,,,,,,,,,,,,,,,,,,0,0,0,0,0,0,0,0,0,24,24,24,,,,,,,,,,,,,,,,,,,,,,,,,,,,,,,,,,,,,,,,,,,,,,,,,,,,,,,,,,,,,,,1636055654.1973093,,,,,,,,,,584.7560830116272,None,,,,,,,,,,,,,,,,,,,,,,,,,,,,,,,,,,,,,,,,,,583.0396859645844,None,584.0272390842438,None,1,1,0.6006500720977783,584.0272390842438,None,,,,,,,8000,001,02,2021_Nov_04_1446,task-switching-replication,2021.2.3,59.9951652608256,
1,26,experiment,02,standing,switch,incongruant,dashed,triangle,yellow,stimuli/dashed-rectangle.png,stimuli/yellow-triangle.png,2,,,,,,,,,,,,,,,,,,,,,,,,,0,0,0,0,0,0,0,0,0,25,25,25,,,,,,,,,,,,,,,,,,,,,,,,,,,,,,,,,,,,,,,,,,,,,,,,,,,,,,,,,,,,,,,1636055656.0829694,,,,,,,,,,586.641900062561,None,,,,,,,,,,,,,,,,,,,,,,,,,,,,,,,,,,,,,,,,,,584.9848861694336,None,585.9722781181335,None,2,1,0.5162479877471924,585.9722781181335,None,,,,,,,8000,001,02,2021_Nov_04_1446,task-switching-replication,2021.2.3,59.9951652608256,
1,27,experiment,02,standing,noswitch,incongruant,dashed,square,yellow,stimuli/dashed-rectangle.png,stimuli/yellow-square.png,1,,,,,,,,,,,,,,,,,,,,,,,,,0,0,0,0,0,0,0,0,0,26,26,26,,,,,,,,,,,,,,,,,,,,,,,,,,,,,,,,,,,,,,,,,,,,,,,,,,,,,,,,,,,,,,,1636055658.6789484,,,,,,,,,,589.2380881309509,None,,,,,,,,,,,,,,,,,,,,,,,,,,,,,,,,,,,,,,,,,,586.8710739612579,None,587.858638048172,None,1,1,1.2662849426269531,587.858638048172,None,,,,,,,8000,001,02,2021_Nov_04_1446,task-switching-replication,2021.2.3,59.9951652608256,
1,28,experiment,02,standing,switch,incongruant,solid,triangle,yellow,stimuli/solid-rectangle.png,stimuli/yellow-triangle.png,2,,,,,,,,,,,,,,,,,,,,,,,,,0,0,0,0,0,0,0,0,0,27,27,27,,,,,,,,,,,,,,,,,,,,,,,,,,,,,,,,,,,,,,,,,,,,,,,,,,,,,,,,,,,,,,,1636055660.8034616,,,,,,,,,,591.3623220920563,None,,,,,,,,,,,,,,,,,,,,,,,,,,,,,,,,,,,,,,,,,,589.4669461250305,None,590.454971075058,None,2,1,0.7829380035400391,590.454971075058,None,,,,,,,8000,001,02,2021_Nov_04_1446,task-switching-replication,2021.2.3,59.9951652608256,
1,29,experiment,02,standing,switch,incongruant,dashed,square,blue,stimuli/dashed-rectangle.png,stimuli/blue-square.png,1,,,,,,,,,,,,,,,,,,,,,,,,,0,0,0,0,0,0,0,0,0,28,28,28,,,,,,,,,,,,,,,,,,,,,,,,,,,,,,,,,,,,,,,,,,,,,,,,,,,,,,,,,,,,,,,1636055662.9897447,,,,,,,,,,593.5485701560974,None,,,,,,,,,,,,,,,,,,,,,,,,,,,,,,,,,,,,,,,,,,591.5913770198822,None,592.5791311264038,None,1,1,0.8403348922729492,592.5791311264038,None,,,,,,,8000,001,02,2021_Nov_04_1446,task-switching-replication,2021.2.3,59.9951652608256,
1,30,experiment,02,standing,switch,incongruant,solid,square,yellow,stimuli/solid-rectangle.png,stimuli/yellow-square.png,2,,,,,,,,,,,,,,,,,,,,,,,,,0,0,0,0,0,0,0,0,0,29,29,29,,,,,,,,,,,,,,,,,,,,,,,,,,,,,,,,,,,,,,,,,,,,,,,,,,,,,,,,,,,,,,,1636055665.2301316,,,,,,,,,,595.789635181427,None,,,,,,,,,,,,,,,,,,,,,,,,,,,,,,,,,,,,,,,,,,593.7774121761322,None,594.7647249698639,None,2,1,0.9189720153808594,594.7647249698639,None,,,,,,,8000,001,02,2021_Nov_04_1446,task-switching-replication,2021.2.3,59.9951652608256,
1,31,experiment,02,standing,noswitch,incongruant,solid,square,blue,stimuli/solid-rectangle.png,stimuli/blue-square.png,1,,,,,,,,,,,,,,,,,,,,,,,,,0,0,0,0,0,0,0,0,0,30,30,30,,,,,,,,,,,,,,,,,,,,,,,,,,,,,,,,,,,,,,,,,,,,,,,,,,,,,,,,,,,,,,,1636055667.6523325,,,,,,,,,,598.2112100124359,None,,,,,,,,,,,,,,,,,,,,,,,,,,,,,,,,,,,,,,,,,,596.0186340808868,None,597.0057940483093,None,1,1,1.066615104675293,597.0057940483093,None,,,,,,,8000,001,02,2021_Nov_04_1446,task-switching-replication,2021.2.3,59.9951652608256,
1,32,experiment,02,standing,noswitch,congruant,solid,square,blue,stimuli/solid-rectangle.png,stimuli/blue-square.png,1,,,,,,,,,,,,,,,,,,,,,,,,,0,0,0,0,0,0,0,0,0,31,31,31,,,,,,,,,,,,,,,,,,,,,,,,,,,,,,,,,,,,,,,,,,,,,,,,,,,,,,,,,,,,,,,1636055669.5973887,,,,,,,,,,600.1568779945374,None,,,,,,,,,,,,,,,,,,,,,,,,,,,,,,,,,,,,,,,,,,598.4402401447296,None,599.4277069568634,None,1,1,0.5760118961334229,599.4277069568634,None,,,,,,,8000,001,02,2021_Nov_04_1446,task-switching-replication,2021.2.3,59.9951652608256,
1,33,experiment,02,standing,switch,congruant,dashed,square,yellow,stimuli/dashed-rectangle.png,stimuli/yellow-square.png,1,,,,,,,,,,,,,,,,,,,,,,,,,0,0,0,0,0,0,0,0,0,32,32,32,,,,,,,,,,,,,,,,,,,,,,,,,,,,,,,,,,,,,,,,,,,,,,,,,,,,,,,,,,,,,,,1636055671.956973,,,,,,,,,,602.5166370868683,None,,,,,,,,,,,,,,,,,,,,,,,,,,,,,,,,,,,,,,,,,,600.3858301639557,None,601.3733251094818,None,1,1,1.041363000869751,601.3733251094818,None,,,,,,,8000,001,02,2021_Nov_04_1446,task-switching-replication,2021.2.3,59.9951652608256,
1,34,experiment,02,standing,noswitch,congruant,dashed,square,blue,stimuli/dashed-rectangle.png,stimuli/blue-square.png,1,,,,,,,,,,,,,,,,,,,,,,,,,0,0,0,0,0,0,0,0,0,33,33,33,,,,,,,,,,,,,,,,,,,,,,,,,,,,,,,,,,,,,,,,,,,,,,,,,,,,,,,,,,,,,,,1636055673.7856493,,,,,,,,,,604.3452460765839,None,,,,,,,,,,,,,,,,,,,,,,,,,,,,,,,,,,,,,,,,,,602.7456450462341,None,603.73428606987,None,1,1,0.5012331008911133,603.73428606987,None,,,,,,,8000,001,02,2021_Nov_04_1446,task-switching-replication,2021.2.3,59.9951652608256,
1,35,experiment,02,standing,switch,incongruant,solid,square,yellow,stimuli/solid-rectangle.png,stimuli/yellow-square.png,2,,,,,,,,,,,,,,,,,,,,,,,,,0,0,0,0,0,0,0,0,0,34,34,34,0,0,0,0,,,,,,,,,,,,,,,,,,,,,,,,,,,,,,,,,,,,,,,,,,,,,,,,,,,,,,,,,,,1636055675.791876,,,,,,,,,,,,,,,,,,,,,,,,,,,,,,,,,,,,606.3232651948929,607.3432550430298,606.3561079502106,None,,,,,,,,,,,,,,604.5745210647583,None,605.5626981258392,None,1,0,0.6339521408081055,605.5626981258392,None,,,,,,,8000,001,02,2021_Nov_04_1446,task-switching-replication,2021.2.3,59.9951652608256,
1,35,experiment,02,standing,switch,incongruant,solid,square,yellow,stimuli/solid-rectangle.png,stimuli/yellow-square.png,2,,,,,,,,,,,,,,,,,,,,,,,,,0,0,0,0,0,0,0,0,0,34,34,34,,,,,,,,,,,,,,,,,,,,,,,,,,,,,,,,,,,,,,,,,,,,,,,,,,,,,,,,,,,,,,,,,,,,,,,,,611.3598320484161,None,,,,,,,,,,,,,,,,,,,,,,,,,,,,,,,,,,,,,,,,,,,,,,,,,,,,,,,,,8000,001,02,2021_Nov_04_1446,task-switching-replication,2021.2.3,59.9951652608256,
1,36,experiment,02,standing,noswitch,incongruant,solid,triangle,blue,stimuli/solid-rectangle.png,stimuli/blue-triangle.png,1,,,,,,,,,,,,,,,,,,,,,,,,,0,0,0,0,0,0,0,0,0,35,35,35,0,0,0,0,,,,,,,,,,,,,,,,,,,,,,,,,,,,,,,,,,,,,,,,,,,,,,,,,,,,,,,,,,,1636055683.3651147,,,,,,,,,,,,,,,,,,,,,,,,,,,,,,,,,,,,613.8965381383896,614.9160780906677,613.9284670352936,None,,,,,,,,,,,,,,611.5569140911102,None,612.5440340042114,None,2,0,1.221557855606079,612.5440340042114,None,,,,,,,8000,001,02,2021_Nov_04_1446,task-switching-replication,2021.2.3,59.9951652608256,
1,36,experiment,02,standing,noswitch,incongruant,solid,triangle,blue,stimuli/solid-rectangle.png,stimuli/blue-triangle.png,1,,,,,,,,,,,,,,,,,,,,,,,,,0,0,0,0,0,0,0,0,0,35,35,35,,,,,,,,,,,,,,,,,,,,,,,,,,,,,,,,,,,,,,,,,,,,,,,,,,,,,,,,,,,,,,,,,,,,,,,,,618.9334590435028,None,,,,,,,,,,,,,,,,,,,,,,,,,,,,,,,,,,,,,,,,,,,,,,,,,,,,,,,,,8000,001,02,2021_Nov_04_1446,task-switching-replication,2021.2.3,59.9951652608256,
1,37,experiment,02,standing,switch,incongruant,dashed,triangle,yellow,stimuli/dashed-rectangle.png,stimuli/yellow-triangle.png,2,,,,,,,,,,,,,,,,,,,,,,,,,0,0,0,0,0,0,0,0,0,36,36,36,,,,,0,0,0,0,,,,,,,,,,,,,,,,,,,,,,,,,,,,,,,,,,,,,,,,,,,,,,,,,,,,,,,1636055690.8780427,,,,,,,,,,,,621.4093769788742,622.4295251369476,621.4421119689941,None,,,,,,,,,,,,,,,,,,,,,,,,,,,,,,,,,,,,,,619.1296970844269,None,620.1169719696045,None,1,0,1.2200109958648682,620.1169719696045,None,,,,,,,8000,001,02,2021_Nov_04_1446,task-switching-replication,2021.2.3,59.9951652608256,
1,37,experiment,02,standing,switch,incongruant,dashed,triangle,yellow,stimuli/dashed-rectangle.png,stimuli/yellow-triangle.png,2,,,,,,,,,,,,,,,,,,,,,,,,,0,0,0,0,0,0,0,0,0,36,36,36,,,,,,,,,,,,,,,,,,,,,,,,,,,,,,,,,,,,,,,,,,,,,,,,,,,,,,,,,,,,,,,,,,,,,,,,,626.4462351799011,None,,,,,,,,,,,,,,,,,,,,,,,,,,,,,,,,,,,,,,,,,,,,,,,,,,,,,,,,,8000,001,02,2021_Nov_04_1446,task-switching-replication,2021.2.3,59.9951652608256,
1,38,experiment,02,standing,switch,incongruant,solid,triangle,blue,stimuli/solid-rectangle.png,stimuli/blue-triangle.png,1,,,,,,,,,,,,,,,,,,,,,,,,,0,0,0,0,0,0,0,0,0,37,37,37,0,0,0,0,,,,,,,,,,,,,,,,,,,,,,,,,,,,,,,,,,,,,,,,,,,,,,,,,,,,,,,,,,,1636055698.5101516,,,,,,,,,,,,,,,,,,,,,,,,,,,,,,,,,,,,629.0415011644363,630.0622119903564,629.0744621753693,None,,,,,,,,,,,,,,626.6433019638062,None,627.6308701038361,None,2,0,1.3416619300842285,627.6308701038361,None,,,,,,,8000,001,02,2021_Nov_04_1446,task-switching-replication,2021.2.3,59.9951652608256,
1,38,experiment,02,standing,switch,incongruant,solid,triangle,blue,stimuli/solid-rectangle.png,stimuli/blue-triangle.png,1,,,,,,,,,,,,,,,,,,,,,,,,,0,0,0,0,0,0,0,0,0,37,37,37,,,,,,,,,,,,,,,,,,,,,,,,,,,,,,,,,,,,,,,,,,,,,,,,,,,,,,,,,,,,,,,,,,,,,,,,,634.0783250331879,None,,,,,,,,,,,,,,,,,,,,,,,,,,,,,,,,,,,,,,,,,,,,,,,,,,,,,,,,,8000,001,02,2021_Nov_04_1446,task-switching-replication,2021.2.3,59.9951652608256,
1,39,experiment,02,standing,noswitch,congruant,solid,square,blue,stimuli/solid-rectangle.png,stimuli/blue-square.png,1,,,,,,,,,,,,,,,,,,,,,,,,,0,0,0,0,0,0,0,0,0,38,38,38,,,,,,,,,,,,,,,,,,,,,,,,,,,,,,,,,,,,,,,,,,,,,,,,,,,,,,,,,,,,,,,1636055706.207805,,,,,,,,,,636.76673412323,None,,,,,,,,,,,,,,,,,,,,,,,,,,,,,,,,,,,,,,,,,,634.2746741771698,None,635.2626550197601,None,1,1,1.350247859954834,635.2626550197601,None,,,,,,,8000,001,02,2021_Nov_04_1446,task-switching-replication,2021.2.3,59.9951652608256,
1,40,experiment,02,standing,switch,incongruant,dashed,triangle,blue,stimuli/dashed-rectangle.png,stimuli/blue-triangle.png,2,,,,,,,,,,,,,,,,,,,,,,,,,0,0,0,0,0,0,0,0,0,39,39,39,,,,,,,,,,,,,,,,,,,,,,,,,,,,,,,,,,,,,,,,,,,,,,,,,,,,,,,,,,,,,,,1636055707.9757462,,,,,,,,,,638.5347371101379,None,,,,,,,,,,,,,,,,,,,,,,,,,,,,,,,,,,,,,,,,,,636.9957301616669,None,637.9833390712738,None,2,1,0.4333639144897461,637.9833390712738,None,,,,,,,8000,001,02,2021_Nov_04_1446,task-switching-replication,2021.2.3,59.9951652608256,
1,41,experiment,02,standing,noswitch,incongruant,dashed,square,blue,stimuli/dashed-rectangle.png,stimuli/blue-square.png,1,,,,,,,,,,,,,,,,,,,,,,,,,0,0,0,0,0,0,0,0,0,40,40,40,,,,,,,,,,,,,,,,,,,,,,,,,,,,,,,,,,,,,,,,,,,,,,,,,,,,,,,,,,,,,,,1636055710.7528584,,,,,,,,,,641.3116230964661,None,,,,,,,,,,,,,,,,,,,,,,,,,,,,,,,,,,,,,,,,,,638.7639591693878,None,639.7531311511993,None,1,1,1.4301378726959229,639.7531311511993,None,,,,,,,8000,001,02,2021_Nov_04_1446,task-switching-replication,2021.2.3,59.9951652608256,
1,42,experiment,02,standing,noswitch,congruant,dashed,square,blue,stimuli/dashed-rectangle.png,stimuli/blue-square.png,1,,,,,,,,,,,,,,,,,,,,,,,,,0,0,0,0,0,0,0,0,0,41,41,41,,,,,,,,,,,,,,,,,,,,,,,,,,,,,,,,,,,,,,,,,,,,,,,,,,,,,,,,,,,,,,,1636055712.8157995,,,,,,,,,,643.3752200603485,None,,,,,,,,,,,,,,,,,,,,,,,,,,,,,,,,,,,,,,,,,,641.5406680107117,None,642.5278260707855,None,1,1,0.7014789581298828,642.5278260707855,None,,,,,,,8000,001,02,2021_Nov_04_1446,task-switching-replication,2021.2.3,59.9951652608256,
1,43,experiment,02,standing,switch,congruant,solid,triangle,blue,stimuli/solid-rectangle.png,stimuli/blue-triangle.png,1,,,,,,,,,,,,,,,,,,,,,,,,,0,0,0,0,0,0,0,0,0,42,42,42,,,,,,,,,,,,,,,,,,,,,,,,,,,,,,,,,,,,,,,,,,,,,,,,,,,,,,,,,,,,,,,1636055715.4703217,,,,,,,,,,646.0297260284424,None,,,,,,,,,,,,,,,,,,,,,,,,,,,,,,,,,,,,,,,,,,643.6041021347046,None,644.5909850597382,None,1,1,1.3153791427612305,644.5909850597382,None,,,,,,,8000,001,02,2021_Nov_04_1446,task-switching-replication,2021.2.3,59.9951652608256,
1,44,experiment,02,standing,noswitch,congruant,solid,square,blue,stimuli/solid-rectangle.png,stimuli/blue-square.png,1,,,,,,,,,,,,,,,,,,,,,,,,,0,0,0,0,0,0,0,0,0,43,43,43,,,,,,,,,,,,,,,,,,,,,,,,,,,,,,,,,,,,,,,,,,,,,,,,,,,,,,,,,,,,,,,1636055717.4746118,,,,,,,,,,648.0340240001678,None,,,,,,,,,,,,,,,,,,,,,,,,,,,,,,,,,,,,,,,,,,646.2584979534149,None,647.2457571029663,None,1,1,0.6376569271087646,647.2457571029663,None,,,,,,,8000,001,02,2021_Nov_04_1446,task-switching-replication,2021.2.3,59.9951652608256,
1,45,experiment,02,standing,noswitch,incongruant,solid,triangle,yellow,stimuli/solid-rectangle.png,stimuli/yellow-triangle.png,2,,,,,,,,,,,,,,,,,,,,,,,,,0,0,0,0,0,0,0,0,0,44,44,44,,,,,,,,,,,,,,,,,,,,,,,,,,,,,,,,,,,,,,,,,,,,,,,,,,,,,,,,,,,,,,,1636055719.598806,,,,,,,,,,650.157753944397,None,,,,,,,,,,,,,,,,,,,,,,,,,,,,,,,,,,,,,,,,,,648.2625119686127,None,649.2501800060272,None,2,1,0.764240026473999,649.2501800060272,None,,,,,,,8000,001,02,2021_Nov_04_1446,task-switching-replication,2021.2.3,59.9951652608256,
1,46,experiment,02,standing,noswitch,congruant,solid,square,yellow,stimuli/solid-rectangle.png,stimuli/yellow-square.png,2,,,,,,,,,,,,,,,,,,,,,,,,,0,0,0,0,0,0,0,0,0,45,45,45,,,,,,,,,,,,,,,,,,,,,,,,,,,,,,,,,,,,,,,,,,,,,,,,,,,,,,,,,,,,,,,1636055721.4257174,,,,,,,,,,651.985857963562,None,,,,,,,,,,,,,,,,,,,,,,,,,,,,,,,,,,,,,,,,,,650.3870050907135,None,651.3744971752167,None,2,1,0.5130829811096191,651.3744971752167,None,,,,,,,8000,001,02,2021_Nov_04_1446,task-switching-replication,2021.2.3,59.9951652608256,
1,47,experiment,02,standing,noswitch,incongruant,solid,triangle,blue,stimuli/solid-rectangle.png,stimuli/blue-triangle.png,1,,,,,,,,,,,,,,,,,,,,,,,,,0,0,0,0,0,0,0,0,0,46,46,46,,,,,,,,,,,,,,,,,,,,,,,,,,,,,,,,,,,,,,,,,,,,,,,,,,,,,,,,,,,,,,,1636055723.8447485,,,,,,,,,,654.4042150974274,None,,,,,,,,,,,,,,,,,,,,,,,,,,,,,,,,,,,,,,,,,,652.2146439552307,None,653.2020020484924,None,1,1,1.0919840335845947,653.2020020484924,None,,,,,,,8000,001,02,2021_Nov_04_1446,task-switching-replication,2021.2.3,59.9951652608256,
1,48,experiment,02,standing,noswitch,congruant,solid,triangle,blue,stimuli/solid-rectangle.png,stimuli/blue-triangle.png,1,,,,,,,,,,,,,,,,,,,,,,,,,0,0,0,0,0,0,0,0,0,47,47,47,,,,,,,,,,,,,,,,,,,,,,,,,,,,,,,,,,,,,,,,,,,,,,,,,,,,,,,,,,,,,,,1636055725.732499,,,,,,,,,,656.2920939922333,None,,,,,,,,,,,,,,,,,,,,,,,,,,,,,,,,,,,,,,,,,,654.6333169937134,None,655.6219999790192,None,1,1,0.564298152923584,655.6219999790192,None,,,,,,,8000,001,02,2021_Nov_04_1446,task-switching-replication,2021.2.3,59.9951652608256,
1,49,experiment,02,standing,switch,congruant,dashed,square,blue,stimuli/dashed-rectangle.png,stimuli/blue-square.png,1,,,,,,,,,,,,,,,,,,,,,,,,,0,0,0,0,0,0,0,0,0,48,48,48,,,,,,,,,,,,,,,,,,,,,,,,,,,,,,,,,,,,,,,,,,,,,,,,,,,,,,,,,,,,,,,1636055727.8562553,,,,,,,,,,658.4157431125641,None,,,,,,,,,,,,,,,,,,,,,,,,,,,,,,,,,,,,,,,,,,656.5211260318756,None,657.508994102478,None,1,1,0.7543530464172363,657.508994102478,None,,,,,,,8000,001,02,2021_Nov_04_1446,task-switching-replication,2021.2.3,59.9951652608256,
,,,02,,,,,,,,,,,,,,,,,,,,,,,,,,,,,,,,,,0,0,0,0,0,0,0,0,,,,,,,,,,,,,,,,,,,,,,,,,,,,,,,,,,,,,,,,,,,,,,,,,,,,,,,,,,,,,,,,,,,,,,,,,,,,,,,,,,,,,,,,,,,,,,,,,,,,,,,,,,,,,,,,,,,,,,,,,,,,,,,,,,,,,,,8000,001,02,2021_Nov_04_1446,task-switching-replication,2021.2.3,59.9951652608256,
2,1,experiment,02,standing,buffer,buffer,dashed,square,blue,stimuli/dashed-rectangle.png,stimuli/blue-square.png,1,,,,,,,,,,,,,,,,,,,,,,,,,0,0,0,0,1,0,1,0,0,0,0,0,,,,,,,,,,,,,,,,,,,,,,,,,,,,,,,,,,,,,,,,,,,,,,,,,,,,,,,,,,,,,,,1636055739.801001,,,,,,,,,,670.3600990772247,None,,,,,,,,,,,,,,,,,,,,,,,,,,,,,,658.6455590724945,None,2,5.9870100021362305,658.6455590724945,None,664.7365009784698,None,2,3.3048131465911865,664.7365009784698,None,668.2273819446564,None,669.2144391536713,None,1,1,0.9916629791259766,669.2144391536713,None,,,,,,,8000,001,02,2021_Nov_04_1446,task-switching-replication,2021.2.3,59.9951652608256,
2,2,experiment,02,standing,noswitch,congruant,dashed,square,blue,stimuli/dashed-rectangle.png,stimuli/blue-square.png,1,,,,,,,,,,,,,,,,,,,,,,,,,0,0,0,0,1,0,1,0,0,1,1,1,,,,,,,,,,,,,,,,,,,,,,,,,,,,,,,,,,,,,,,,,,,,,,,,,,,,,,,,,,,,,,,1636055741.510632,,,,,,,,,,672.0701191425323,None,,,,,,,,,,,,,,,,,,,,,,,,,,,,,,,,,,,,,,,,,,670.5895540714264,None,671.5772440433502,None,1,1,0.3619811534881592,671.5772440433502,None,,,,,,,8000,001,02,2021_Nov_04_1446,task-switching-replication,2021.2.3,59.9951652608256,
2,3,experiment,02,standing,noswitch,congruant,dashed,square,yellow,stimuli/dashed-rectangle.png,stimuli/yellow-square.png,1,,,,,,,,,,,,,,,,,,,,,,,,,0,0,0,0,1,0,1,0,0,2,2,2,,,,,,,,,,,,,,,,,,,,,,,,,,,,,,,,,,,,,,,,,,,,,,,,,,,,,,,,,,,,,,,1636055743.9900577,,,,,,,,,,674.5494871139526,None,,,,,,,,,,,,,,,,,,,,,,,,,,,,,,,,,,,,,,,,,,672.2992260456085,None,673.287467956543,None,1,1,1.125821828842163,673.287467956543,None,,,,,,,8000,001,02,2021_Nov_04_1446,task-switching-replication,2021.2.3,59.9951652608256,
2,4,experiment,02,standing,noswitch,incongruant,dashed,triangle,blue,stimuli/dashed-rectangle.png,stimuli/blue-triangle.png,2,,,,,,,,,,,,,,,,,,,,,,,,,0,0,0,0,1,0,1,0,0,3,3,3,,,,,,,,,,,,,,,,,,,,,,,,,,,,,,,,,,,,,,,,,,,,,,,,,,,,,,,,,,,,,,,1636055745.994885,,,,,,,,,,676.554573059082,None,,,,,,,,,,,,,,,,,,,,,,,,,,,,,,,,,,,,,,,,,,674.7784750461578,None,675.7659001350403,None,2,1,0.6769208908081055,675.7659001350403,None,,,,,,,8000,001,02,2021_Nov_04_1446,task-switching-replication,2021.2.3,59.9951652608256,
2,5,experiment,02,standing,noswitch,congruant,dashed,triangle,yellow,stimuli/dashed-rectangle.png,stimuli/yellow-triangle.png,2,,,,,,,,,,,,,,,,,,,,,,,,,0,0,0,0,1,0,1,0,0,4,4,4,,,,,,,,,,,,,,,,,,,,,,,,,,,,,,,,,,,,,,,,,,,,,,,,,,,,,,,,,,,,,,,1636055747.940548,,,,,,,,,,678.5000929832458,None,,,,,,,,,,,,,,,,,,,,,,,,,,,,,,,,,,,,,,,,,,676.7834761142731,None,677.7708690166473,None,2,1,0.5793731212615967,677.7708690166473,None,,,,,,,8000,001,02,2021_Nov_04_1446,task-switching-replication,2021.2.3,59.9951652608256,
2,6,experiment,02,standing,switch,congruant,solid,square,yellow,stimuli/solid-rectangle.png,stimuli/yellow-square.png,2,,,,,,,,,,,,,,,,,,,,,,,,,0,0,0,0,1,0,1,0,0,5,5,5,0,0,0,0,,,,,,,,,,,,,,,,,,,,,,,,,,,,,,,,,,,,,,,,,,,,,,,,,,,,,,,,,,,1636055750.3616896,,,,,,,,,,,,,,,,,,,,,,,,,,,,,,,,,,,,680.8931041955948,681.9127881526947,680.9251501560211,None,,,,,,,,,,,,,,678.7290961742401,None,679.7164921760559,None,1,0,1.0805728435516357,679.7164921760559,None,,,,,,,8000,001,02,2021_Nov_04_1446,task-switching-replication,2021.2.3,59.9951652608256,
2,6,experiment,02,standing,switch,congruant,solid,square,yellow,stimuli/solid-rectangle.png,stimuli/yellow-square.png,2,,,,,,,,,,,,,,,,,,,,,,,,,0,0,0,0,1,0,1,0,0,5,5,5,,,,,,,,,,,,,,,,,,,,,,,,,,,,,,,,,,,,,,,,,,,,,,,,,,,,,,,,,,,,,,,,,,,,,,,,,685.9286580085754,None,,,,,,,,,,,,,,,,,,,,,,,,,,,,,,,,,,,,,,,,,,,,,,,,,,,,,,,,,8000,001,02,2021_Nov_04_1446,task-switching-replication,2021.2.3,59.9951652608256,
2,7,experiment,02,standing,noswitch,incongruant,solid,triangle,blue,stimuli/solid-rectangle.png,stimuli/blue-triangle.png,1,,,,,,,,,,,,,,,,,,,,,,,,,0,0,0,0,1,0,1,0,0,6,6,6,0,0,0,0,,,,,,,,,,,,,,,,,,,,,,,,,,,,,,,,,,,,,,,,,,,,,,,,,,,,,,,,,,,1636055757.3410692,,,,,,,,,,,,,,,,,,,,,,,,,,,,,,,,,,,,687.8724530935287,688.8926200866699,687.9049661159515,None,,,,,,,,,,,,,,686.1249840259552,None,687.1121730804443,None,2,0,0.6699659824371338,687.1121730804443,None,,,,,,,8000,001,02,2021_Nov_04_1446,task-switching-replication,2021.2.3,59.9951652608256,
2,7,experiment,02,standing,noswitch,incongruant,solid,triangle,blue,stimuli/solid-rectangle.png,stimuli/blue-triangle.png,1,,,,,,,,,,,,,,,,,,,,,,,,,0,0,0,0,1,0,1,0,0,6,6,6,,,,,,,,,,,,,,,,,,,,,,,,,,,,,,,,,,,,,,,,,,,,,,,,,,,,,,,,,,,,,,,,,,,,,,,,,692.9110109806061,None,,,,,,,,,,,,,,,,,,,,,,,,,,,,,,,,,,,,,,,,,,,,,,,,,,,,,,,,,8000,001,02,2021_Nov_04_1446,task-switching-replication,2021.2.3,59.9951652608256,
2,8,experiment,02,standing,switch,congruant,dashed,square,yellow,stimuli/dashed-rectangle.png,stimuli/yellow-square.png,1,,,,,,,,,,,,,,,,,,,,,,,,,0,0,0,0,1,0,1,0,0,7,7,7,,,,,,,,,,,,,,,,,,,,,,,,,,,,,,,,,,,,,,,,,,,,,,,,,,,,,,,,,,,,,,,1636055764.1480658,,,,,,,,,,694.7068221569061,None,,,,,,,,,,,,,,,,,,,,,,,,,,,,,,,,,,,,,,,,,,693.1077270507812,None,694.0958111286163,None,1,1,0.48245692253112793,694.0958111286163,None,,,,,,,8000,001,02,2021_Nov_04_1446,task-switching-replication,2021.2.3,59.9951652608256,
2,9,experiment,02,standing,noswitch,incongruant,dashed,triangle,blue,stimuli/dashed-rectangle.png,stimuli/blue-triangle.png,2,,,,,,,,,,,,,,,,,,,,,,,,,0,0,0,0,1,0,1,0,0,8,8,8,,,,,,,,,,,,,,,,,,,,,,,,,,,,,,,,,,,,,,,,,,,,,,,,,,,,,,,,,,,,,,,1636055766.0960693,,,,,,,,,,696.655070066452,None,,,,,,,,,,,,,,,,,,,,,,,,,,,,,,,,,,,,,,,,,,694.9359560012817,None,695.9233281612396,None,2,1,0.5977249145507812,695.9233281612396,None,,,,,,,8000,001,02,2021_Nov_04_1446,task-switching-replication,2021.2.3,59.9951652608256,
2,10,experiment,02,standing,switch,congruant,solid,triangle,yellow,stimuli/solid-rectangle.png,stimuli/yellow-triangle.png,2,,,,,,,,,,,,,,,,,,,,,,,,,0,0,0,0,1,0,1,0,0,9,9,9,,,,,,,,,,,,,,,,,,,,,,,,,,,,,,,,,,,,,,,,,,,,,,,,,,,,,,,,,,,,,,,1636055767.9233859,,,,,,,,,,698.4833920001984,None,,,,,,,,,,,,,,,,,,,,,,,,,,,,,,,,,,,,,,,,,,696.8842890262604,None,697.8718690872192,None,2,1,0.5113980770111084,697.8718690872192,None,,,,,,,8000,001,02,2021_Nov_04_1446,task-switching-replication,2021.2.3,59.9951652608256,
2,11,experiment,02,standing,noswitch,incongruant,solid,triangle,blue,stimuli/solid-rectangle.png,stimuli/blue-triangle.png,1,,,,,,,,,,,,,,,,,,,,,,,,,0,0,0,0,1,0,1,0,0,10,10,10,,,,,,,,,,,,,,,,,,,,,,,,,,,,,,,,,,,,,,,,,,,,,,,,,,,,,,,,,,,,,,,1636055770.1685064,,,,,,,,,,700.727746963501,None,,,,,,,,,,,,,,,,,,,,,,,,,,,,,,,,,,,,,,,,,,698.7128009796143,None,699.7014050483704,None,1,1,0.8723480701446533,699.7014050483704,None,,,,,,,8000,001,02,2021_Nov_04_1446,task-switching-replication,2021.2.3,59.9951652608256,
2,12,experiment,02,standing,noswitch,incongruant,solid,square,yellow,stimuli/solid-rectangle.png,stimuli/yellow-square.png,2,,,,,,,,,,,,,,,,,,,,,,,,,0,0,0,0,1,0,1,0,0,11,11,11,,,,,,,,,,,,,,,,,,,,,,,,,,,,,,,,,,,,,,,,,,,,,,,,,,,,,,,,,,,,,,,1636055772.3559997,,,,,,,,,,702.9148020744324,None,,,,,,,,,,,,,,,,,,,,,,,,,,,,,,,,,,,,,,,,,,700.9571900367737,None,701.9459221363068,None,2,1,0.8350770473480225,701.9459221363068,None,,,,,,,8000,001,02,2021_Nov_04_1446,task-switching-replication,2021.2.3,59.9951652608256,
2,13,experiment,02,standing,switch,congruant,dashed,triangle,blue,stimuli/dashed-rectangle.png,stimuli/blue-triangle.png,2,,,,,,,,,,,,,,,,,,,,,,,,,0,0,0,0,1,0,1,0,0,12,12,12,,,,,0,0,0,0,,,,,,,,,,,,,,,,,,,,,,,,,,,,,,,,,,,,,,,,,,,,,,,,,,,,,,,1636055774.777095,,,,,,,,,,,,705.3085201978683,706.3284051418304,705.3407690525055,None,,,,,,,,,,,,,,,,,,,,,,,,,,,,,,,,,,,,,,703.1441400051117,None,704.1328840255737,None,1,0,1.0493249893188477,704.1328840255737,None,,,,,,,8000,001,02,2021_Nov_04_1446,task-switching-replication,2021.2.3,59.9951652608256,
2,13,experiment,02,standing,switch,congruant,dashed,triangle,blue,stimuli/dashed-rectangle.png,stimuli/blue-triangle.png,2,,,,,,,,,,,,,,,,,,,,,,,,,0,0,0,0,1,0,1,0,0,12,12,12,,,,,,,,,,,,,,,,,,,,,,,,,,,,,,,,,,,,,,,,,,,,,,,,,,,,,,,,,,,,,,,,,,,,,,,,,710.3470339775085,None,,,,,,,,,,,,,,,,,,,,,,,,,,,,,,,,,,,,,,,,,,,,,,,,,,,,,,,,,8000,001,02,2021_Nov_04_1446,task-switching-replication,2021.2.3,59.9951652608256,
2,14,experiment,02,standing,switch,incongruant,solid,square,blue,stimuli/solid-rectangle.png,stimuli/blue-square.png,1,,,,,,,,,,,,,,,,,,,,,,,,,0,0,0,0,1,0,1,0,0,13,13,13,,,,,,,,,,,,,,,,,,,,,,,,,,,,,,,,,,,,,,,,,,,,,,,,,,,,,,,,,,,,,,,1636055781.8788674,,,,,,,,,,712.4385941028595,None,,,,,,,,,,,,,,,,,,,,,,,,,,,,,,,,,,,,,,,,,,710.543643951416,None,711.5313320159912,None,1,1,0.7901477813720703,711.5313320159912,None,,,,,,,8000,001,02,2021_Nov_04_1446,task-switching-replication,2021.2.3,59.9951652608256,
2,15,experiment,02,standing,noswitch,incongruant,solid,square,yellow,stimuli/solid-rectangle.png,stimuli/yellow-square.png,2,,,,,,,,,,,,,,,,,,,,,,,,,0,0,0,0,1,0,1,0,0,14,14,14,0,0,0,0,,,,,,,,,,,,,,,,,,,,,,,,,,,,,,,,,,,,,,,,,,,,,,,,,,,,,,,,,,,1636055783.9439912,,,,,,,,,,,,,,,,,,,,,,,,,,,,,,,,,,,,714.475300192833,715.4962170124054,714.5085501670837,None,,,,,,,,,,,,,,712.6676831245422,None,713.6558470726013,None,1,0,0.7357420921325684,713.6558470726013,None,,,,,,,8000,001,02,2021_Nov_04_1446,task-switching-replication,2021.2.3,59.9951652608256,
2,15,experiment,02,standing,noswitch,incongruant,solid,square,yellow,stimuli/solid-rectangle.png,stimuli/yellow-square.png,2,,,,,,,,,,,,,,,,,,,,,,,,,0,0,0,0,1,0,1,0,0,14,14,14,,,,,,,,,,,,,,,,,,,,,,,,,,,,,,,,,,,,,,,,,,,,,,,,,,,,,,,,,,,,,,,,,,,,,,,,,719.5168280601501,None,,,,,,,,,,,,,,,,,,,,,,,,,,,,,,,,,,,,,,,,,,,,,,,,,,,,,,,,,8000,001,02,2021_Nov_04_1446,task-switching-replication,2021.2.3,59.9951652608256,
2,16,experiment,02,standing,noswitch,incongruant,solid,triangle,blue,stimuli/solid-rectangle.png,stimuli/blue-triangle.png,1,,,,,,,,,,,,,,,,,,,,,,,,,0,0,0,0,1,0,1,0,0,15,15,15,0,0,0,0,,,,,,,,,,,,,,,,,,,,,,,,,,,,,,,,,,,,,,,,,,,,,,,,,,,,,,,,,,,1636055791.4636345,,,,,,,,,,,,,,,,,,,,,,,,,,,,,,,,,,,,721.9949949979782,723.0161321163177,722.0281729698181,None,,,,,,,,,,,,,,719.7134280204773,None,720.7016661167145,None,2,0,1.2189068794250488,720.7016661167145,None,,,,,,,8000,001,02,2021_Nov_04_1446,task-switching-replication,2021.2.3,59.9951652608256,
2,16,experiment,02,standing,noswitch,incongruant,solid,triangle,blue,stimuli/solid-rectangle.png,stimuli/blue-triangle.png,1,,,,,,,,,,,,,,,,,,,,,,,,,0,0,0,0,1,0,1,0,0,15,15,15,,,,,,,,,,,,,,,,,,,,,,,,,,,,,,,,,,,,,,,,,,,,,,,,,,,,,,,,,,,,,,,,,,,,,,,,,727.0369291305542,None,,,,,,,,,,,,,,,,,,,,,,,,,,,,,,,,,,,,,,,,,,,,,,,,,,,,,,,,,8000,001,02,2021_Nov_04_1446,task-switching-replication,2021.2.3,59.9951652608256,
2,17,experiment,02,standing,switch,congruant,dashed,square,yellow,stimuli/dashed-rectangle.png,stimuli/yellow-square.png,1,,,,,,,,,,,,,,,,,,,,,,,,,0,0,0,0,1,0,1,0,0,16,16,16,,,,,,,,,,,,,,,,,,,,,,,,,,,,,,,,,,,,,,,,,,,,,,,,,,,,,,,,,,,,,,,1636055798.452473,,,,,,,,,,729.0113580226898,None,,,,,,,,,,,,,,,,,,,,,,,,,,,,,,,,,,,,,,,,,,727.2339401245117,None,728.2225611209869,None,1,1,0.6756448745727539,728.2225611209869,None,,,,,,,8000,001,02,2021_Nov_04_1446,task-switching-replication,2021.2.3,59.9951652608256,
2,18,experiment,02,standing,switch,congruant,solid,triangle,blue,stimuli/solid-rectangle.png,stimuli/blue-triangle.png,1,,,,,,,,,,,,,,,,,,,,,,,,,0,0,0,0,1,0,1,0,0,17,17,17,0,0,0,0,,,,,,,,,,,,,,,,,,,,,,,,,,,,,,,,,,,,,,,,,,,,,,,,,,,,,,,,,,,1636055800.8136358,,,,,,,,,,,,,,,,,,,,,,,,,,,,,,,,,,,,731.3449980020523,732.3654861450195,731.3775260448456,None,,,,,,,,,,,,,,729.2404110431671,None,730.2290890216827,None,2,0,1.033613920211792,730.2290890216827,None,,,,,,,8000,001,02,2021_Nov_04_1446,task-switching-replication,2021.2.3,59.9951652608256,
2,18,experiment,02,standing,switch,congruant,solid,triangle,blue,stimuli/solid-rectangle.png,stimuli/blue-triangle.png,1,,,,,,,,,,,,,,,,,,,,,,,,,0,0,0,0,1,0,1,0,0,17,17,17,,,,,,,,,,,,,,,,,,,,,,,,,,,,,,,,,,,,,,,,,,,,,,,,,,,,,,,,,,,,,,,,,,,,,,,,,736.3842000961304,None,,,,,,,,,,,,,,,,,,,,,,,,,,,,,,,,,,,,,,,,,,,,,,,,,,,,,,,,,8000,001,02,2021_Nov_04_1446,task-switching-replication,2021.2.3,59.9951652608256,
2,19,experiment,02,standing,switch,congruant,dashed,square,yellow,stimuli/dashed-rectangle.png,stimuli/yellow-square.png,1,,,,,,,,,,,,,,,,,,,,,,,,,0,0,0,0,1,0,1,0,0,18,18,18,,,,,,,,,,,,,,,,,,,,,,,,,,,,,,,,,,,,,,,,,,,,,,,,,,,,,,,,,,,,,,,1636055807.8604856,,,,,,,,,,738.4193420410156,None,,,,,,,,,,,,,,,,,,,,,,,,,,,,,,,,,,,,,,,,,,736.5809061527252,None,737.56955909729,None,1,1,0.6958670616149902,737.56955909729,None,,,,,,,8000,001,02,2021_Nov_04_1446,task-switching-replication,2021.2.3,59.9951652608256,
2,20,experiment,02,standing,noswitch,incongruant,dashed,triangle,yellow,stimuli/dashed-rectangle.png,stimuli/yellow-triangle.png,2,,,,,,,,,,,,,,,,,,,,,,,,,0,0,0,0,1,0,1,0,0,19,19,19,,,,,,,,,,,,,,,,,,,,,,,,,,,,,,,,,,,,,,,,,,,,,,,,,,,,,,,,,,,,,,,1636055809.81213,,,,,,,,,,740.3710401058197,None,,,,,,,,,,,,,,,,,,,,,,,,,,,,,,,,,,,,,,,,,,738.6483240127563,None,739.6385171413422,None,2,1,0.5839970111846924,739.6385171413422,None,,,,,,,8000,001,02,2021_Nov_04_1446,task-switching-replication,2021.2.3,59.9951652608256,
2,21,experiment,02,standing,noswitch,congruant,dashed,triangle,blue,stimuli/dashed-rectangle.png,stimuli/blue-triangle.png,2,,,,,,,,,,,,,,,,,,,,,,,,,0,0,0,0,1,0,1,0,0,20,20,20,,,,,,,,,,,,,,,,,,,,,,,,,,,,,,,,,,,,,,,,,,,,,,,,,,,,,,,,,,,,,,,1636055811.6423528,,,,,,,,,,742.2021040916443,None,,,,,,,,,,,,,,,,,,,,,,,,,,,,,,,,,,,,,,,,,,740.6007089614868,None,741.5904340744019,None,2,1,0.4956052303314209,741.5904340744019,None,,,,,,,8000,001,02,2021_Nov_04_1446,task-switching-replication,2021.2.3,59.9951652608256,
2,22,experiment,02,standing,switch,incongruant,solid,square,blue,stimuli/solid-rectangle.png,stimuli/blue-square.png,1,,,,,,,,,,,,,,,,,,,,,,,,,0,0,0,0,1,0,1,0,0,21,21,21,,,,,,,,,,,,,,,,,,,,,,,,,,,,,,,,,,,,,,,,,,,,,,,,,,,,,,,,,,,,,,,1636055813.8847103,,,,,,,,,,744.443685054779,None,,,,,,,,,,,,,,,,,,,,,,,,,,,,,,,,,,,,,,,,,,742.4309160709381,None,743.418487071991,None,1,1,0.9237079620361328,743.418487071991,None,,,,,,,8000,001,02,2021_Nov_04_1446,task-switching-replication,2021.2.3,59.9951652608256,
2,23,experiment,02,standing,noswitch,congruant,solid,square,blue,stimuli/solid-rectangle.png,stimuli/blue-square.png,1,,,,,,,,,,,,,,,,,,,,,,,,,0,0,0,0,1,0,1,0,0,22,22,22,,,,,,,,,,,,,,,,,,,,,,,,,,,,,,,,,,,,,,,,,,,,,,,,,,,,,,,,,,,,,,,1636055815.8903115,,,,,,,,,,746.4499020576477,None,,,,,,,,,,,,,,,,,,,,,,,,,,,,,,,,,,,,,,,,,,744.6729791164398,None,745.6612191200256,None,1,1,0.6836209297180176,745.6612191200256,None,,,,,,,8000,001,02,2021_Nov_04_1446,task-switching-replication,2021.2.3,59.9951652608256,
2,24,experiment,02,standing,switch,congruant,dashed,square,blue,stimuli/dashed-rectangle.png,stimuli/blue-square.png,1,,,,,,,,,,,,,,,,,,,,,,,,,0,0,0,0,1,0,1,0,0,23,23,23,,,,,,,,,,,,,,,,,,,,,,,,,,,,,,,,,,,,,,,,,,,,,,,,,,,,,,,,,,,,,,,1636055817.777761,,,,,,,,,,748.3373169898987,None,,,,,,,,,,,,,,,,,,,,,,,,,,,,,,,,,,,,,,,,,,746.6789929866791,None,747.6670360565186,None,1,1,0.5338730812072754,747.6670360565186,None,,,,,,,8000,001,02,2021_Nov_04_1446,task-switching-replication,2021.2.3,59.9951652608256,
2,25,experiment,02,standing,noswitch,incongruant,dashed,triangle,yellow,stimuli/dashed-rectangle.png,stimuli/yellow-triangle.png,2,,,,,,,,,,,,,,,,,,,,,,,,,0,0,0,0,1,0,1,0,0,24,24,24,,,,,0,0,0,0,,,,,,,,,,,,,,,,,,,,,,,,,,,,,,,,,,,,,,,,,,,,,,,,,,,,,,,1636055820.4338396,,,,,,,,,,,,750.9651581048965,751.9862101078033,750.998626947403,None,,,,,,,,,,,,,,,,,,,,,,,,,,,,,,,,,,,,,,748.5659310817719,None,749.553524017334,None,1,0,1.2913901805877686,749.553524017334,None,,,,,,,8000,001,02,2021_Nov_04_1446,task-switching-replication,2021.2.3,59.9951652608256,
2,25,experiment,02,standing,noswitch,incongruant,dashed,triangle,yellow,stimuli/dashed-rectangle.png,stimuli/yellow-triangle.png,2,,,,,,,,,,,,,,,,,,,,,,,,,0,0,0,0,1,0,1,0,0,24,24,24,,,,,,,,,,,,,,,,,,,,,,,,,,,,,,,,,,,,,,,,,,,,,,,,,,,,,,,,,,,,,,,,,,,,,,,,,756.0020229816437,None,,,,,,,,,,,,,,,,,,,,,,,,,,,,,,,,,,,,,,,,,,,,,,,,,,,,,,,,,8000,001,02,2021_Nov_04_1446,task-switching-replication,2021.2.3,59.9951652608256,
2,26,experiment,02,standing,switch,congruant,solid,square,yellow,stimuli/solid-rectangle.png,stimuli/yellow-square.png,2,,,,,,,,,,,,,,,,,,,,,,,,,0,0,0,0,1,0,1,0,0,25,25,25,0,0,0,0,,,,,,,,,,,,,,,,,,,,,,,,,,,,,,,,,,,,,,,,,,,,,,,,,,,,,,,,,,,1636055828.0663993,,,,,,,,,,,,,,,,,,,,,,,,,,,,,,,,,,,,758.5978051424026,759.618556022644,758.6306171417236,None,,,,,,,,,,,,,,756.1986131668091,None,757.1866581439972,None,1,0,1.2980868816375732,757.1866581439972,None,,,,,,,8000,001,02,2021_Nov_04_1446,task-switching-replication,2021.2.3,59.9951652608256,
2,26,experiment,02,standing,switch,congruant,solid,square,yellow,stimuli/solid-rectangle.png,stimuli/yellow-square.png,2,,,,,,,,,,,,,,,,,,,,,,,,,0,0,0,0,1,0,1,0,0,25,25,25,,,,,,,,,,,,,,,,,,,,,,,,,,,,,,,,,,,,,,,,,,,,,,,,,,,,,,,,,,,,,,,,,,,,,,,,,763.637974023819,None,,,,,,,,,,,,,,,,,,,,,,,,,,,,,,,,,,,,,,,,,,,,,,,,,,,,,,,,,8000,001,02,2021_Nov_04_1446,task-switching-replication,2021.2.3,59.9951652608256,
2,27,experiment,02,standing,switch,incongruant,dashed,square,yellow,stimuli/dashed-rectangle.png,stimuli/yellow-square.png,1,,,,,,,,,,,,,,,,,,,,,,,,,0,0,0,0,1,0,1,0,0,26,26,26,,,,,0,0,0,0,,,,,,,,,,,,,,,,,,,,,,,,,,,,,,,,,,,,,,,,,,,,,,,,,,,,,,,1636055835.820836,,,,,,,,,,,,766.3613509654999,767.3799860477448,766.3928761482239,None,,,,,,,,,,,,,,,,,,,,,,,,,,,,,,,,,,,,,,763.8344831466675,None,764.8222260475159,None,None,0,,764.8222260475159,None,,,,,,,8000,001,02,2021_Nov_04_1446,task-switching-replication,2021.2.3,59.9951652608256,
2,27,experiment,02,standing,switch,incongruant,dashed,square,yellow,stimuli/dashed-rectangle.png,stimuli/yellow-square.png,1,,,,,,,,,,,,,,,,,,,,,,,,,0,0,0,0,1,0,1,0,0,26,26,26,,,,,,,,,,,,,,,,,,,,,,,,,,,,,,,,,,,,,,,,,,,,,,,,,,,,,,,,,,,,,,,,,,,,,,,,,771.3972389698029,None,,,,,,,,,,,,,,,,,,,,,,,,,,,,,,,,,,,,,,,,,,,,,,,,,,,,,,,,,8000,001,02,2021_Nov_04_1446,task-switching-replication,2021.2.3,59.9951652608256,
2,28,experiment,02,standing,switch,congruant,solid,square,blue,stimuli/solid-rectangle.png,stimuli/blue-square.png,1,,,,,,,,,,,,,,,,,,,,,,,,,0,0,0,0,1,0,1,0,0,27,27,27,0,0,0,0,,,,,,,,,,,,,,,,,,,,,,,,,,,,,,,,,,,,,,,,,,,,,,,,,,,,,,,,,,,1636055843.2904997,,,,,,,,,,,,,,,,,,,,,,,,,,,,,,,,,,,,773.821906208992,774.8421239852905,773.853856086731,None,,,,,,,,,,,,,,771.5936870574951,None,772.5819909572601,None,2,0,1.1427819728851318,772.5819909572601,None,,,,,,,8000,001,02,2021_Nov_04_1446,task-switching-replication,2021.2.3,59.9951652608256,
2,28,experiment,02,standing,switch,congruant,solid,square,blue,stimuli/solid-rectangle.png,stimuli/blue-square.png,1,,,,,,,,,,,,,,,,,,,,,,,,,0,0,0,0,1,0,1,0,0,27,27,27,,,,,,,,,,,,,,,,,,,,,,,,,,,,,,,,,,,,,,,,,,,,,,,,,,,,,,,,,,,,,,,,,,,,,,,,,778.8604881763458,None,,,,,,,,,,,,,,,,,,,,,,,,,,,,,,,,,,,,,,,,,,,,,,,,,,,,,,,,,8000,001,02,2021_Nov_04_1446,task-switching-replication,2021.2.3,59.9951652608256,
2,29,experiment,02,standing,switch,congruant,dashed,square,blue,stimuli/dashed-rectangle.png,stimuli/blue-square.png,1,,,,,,,,,,,,,,,,,,,,,,,,,0,0,0,0,1,0,1,0,0,28,28,28,,,,,,,,,,,,,,,,,,,,,,,,,,,,,,,,,,,,,,,,,,,,,,,,,,,,,,,,,,,,,,,1636055850.3940036,,,,,,,,,,780.9528050422668,None,,,,,,,,,,,,,,,,,,,,,,,,,,,,,,,,,,,,,,,,,,779.057137966156,None,780.0455100536346,None,1,1,0.7641251087188721,780.0455100536346,None,,,,,,,8000,001,02,2021_Nov_04_1446,task-switching-replication,2021.2.3,59.9951652608256,
2,30,experiment,02,standing,switch,congruant,solid,triangle,blue,stimuli/solid-rectangle.png,stimuli/blue-triangle.png,1,,,,,,,,,,,,,,,,,,,,,,,,,0,0,0,0,1,0,1,0,0,29,29,29,,,,,,,,,,,,,,,,,,,,,,,,,,,,,,,,,,,,,,,,,,,,,,,,,,,,,,,,,,,,,,,1636055852.8725595,,,,,,,,,,783.4323711395264,None,,,,,,,,,,,,,,,,,,,,,,,,,,,,,,,,,,,,,,,,,,781.182079076767,None,782.1700210571289,None,1,1,1.162653923034668,782.1700210571289,None,,,,,,,8000,001,02,2021_Nov_04_1446,task-switching-replication,2021.2.3,59.9951652608256,
2,31,experiment,02,standing,switch,congruant,dashed,square,blue,stimuli/dashed-rectangle.png,stimuli/blue-square.png,1,,,,,,,,,,,,,,,,,,,,,,,,,0,0,0,0,1,0,1,0,0,30,30,30,,,,,,,,,,,,,,,,,,,,,,,,,,,,,,,,,,,,,,,,,,,,,,,,,,,,,,,,,,,,,,,1636055855.0567913,,,,,,,,,,785.6162519454956,None,,,,,,,,,,,,,,,,,,,,,,,,,,,,,,,,,,,,,,,,,,783.6614661216736,None,784.6495940685272,None,1,1,0.8331899642944336,784.6495940685272,None,,,,,,,8000,001,02,2021_Nov_04_1446,task-switching-replication,2021.2.3,59.9951652608256,
2,32,experiment,02,standing,switch,incongruant,solid,triangle,yellow,stimuli/solid-rectangle.png,stimuli/yellow-triangle.png,2,,,,,,,,,,,,,,,,,,,,,,,,,0,0,0,0,1,0,1,0,0,31,31,31,,,,,,,,,,,,,,,,,,,,,,,,,,,,,,,,,,,,,,,,,,,,,,,,,,,,,,,,,,,,,,,1636055857.1810596,,,,,,,,,,787.7401170730591,None,,,,,,,,,,,,,,,,,,,,,,,,,,,,,,,,,,,,,,,,,,785.8449711799622,None,786.833055973053,None,2,1,0.7536478042602539,786.833055973053,None,,,,,,,8000,001,02,2021_Nov_04_1446,task-switching-replication,2021.2.3,59.9951652608256,
2,33,experiment,02,standing,switch,incongruant,dashed,square,blue,stimuli/dashed-rectangle.png,stimuli/blue-square.png,1,,,,,,,,,,,,,,,,,,,,,,,,,0,0,0,0,1,0,1,0,0,32,32,32,,,,,,,,,,,,,,,,,,,,,,,,,,,,,,,,,,,,,,,,,,,,,,,,,,,,,,,,,,,,,,,1636055859.4818022,,,,,,,,,,790.0410561561584,None,,,,,,,,,,,,,,,,,,,,,,,,,,,,,,,,,,,,,,,,,,787.9694361686707,None,788.9571571350098,None,1,1,0.9766180515289307,788.9571571350098,None,,,,,,,8000,001,02,2021_Nov_04_1446,task-switching-replication,2021.2.3,59.9951652608256,
2,34,experiment,02,standing,switch,incongruant,solid,square,yellow,stimuli/solid-rectangle.png,stimuli/yellow-square.png,2,,,,,,,,,,,,,,,,,,,,,,,,,0,0,0,0,1,0,1,0,0,33,33,33,0,0,0,0,,,,,,,,,,,,,,,,,,,,,,,,,,,,,,,,,,,,,,,,,,,,,,,,,,,,,,,,,,,1636055861.6320972,,,,,,,,,,,,,,,,,,,,,,,,,,,,,,,,,,,,792.1631289720535,793.1847341060638,792.1977381706238,None,,,,,,,,,,,,,,790.2700970172882,None,791.271154165268,None,1,0,0.7755928039550781,791.271154165268,None,,,,,,,8000,001,02,2021_Nov_04_1446,task-switching-replication,2021.2.3,59.9951652608256,
2,34,experiment,02,standing,switch,incongruant,solid,square,yellow,stimuli/solid-rectangle.png,stimuli/yellow-square.png,2,,,,,,,,,,,,,,,,,,,,,,,,,0,0,0,0,1,0,1,0,0,33,33,33,,,,,,,,,,,,,,,,,,,,,,,,,,,,,,,,,,,,,,,,,,,,,,,,,,,,,,,,,,,,,,,,,,,,,,,,,797.2004389762878,None,,,,,,,,,,,,,,,,,,,,,,,,,,,,,,,,,,,,,,,,,,,,,,,,,,,,,,,,,8000,001,02,2021_Nov_04_1446,task-switching-replication,2021.2.3,59.9951652608256,
2,35,experiment,02,standing,noswitch,congruant,solid,triangle,yellow,stimuli/solid-rectangle.png,stimuli/yellow-triangle.png,2,,,,,,,,,,,,,,,,,,,,,,,,,0,0,0,0,1,0,1,0,0,34,34,34,,,,,,,,,,,,,,,,,,,,,,,,,,,,,,,,,,,,,,,,,,,,,,,,,,,,,,,,,,,,,,,1636055868.6754043,,,,,,,,,,799.2342460155487,None,,,,,,,,,,,,,,,,,,,,,,,,,,,,,,,,,,,,,,,,,,797.3967771530151,None,798.3842661380768,None,2,1,0.7117030620574951,798.3842661380768,None,,,,,,,8000,001,02,2021_Nov_04_1446,task-switching-replication,2021.2.3,59.9951652608256,
2,36,experiment,02,standing,noswitch,congruant,solid,triangle,yellow,stimuli/solid-rectangle.png,stimuli/yellow-triangle.png,2,,,,,,,,,,,,,,,,,,,,,,,,,0,0,0,0,1,0,1,0,0,35,35,35,,,,,,,,,,,,,,,,,,,,,,,,,,,,,,,,,,,,,,,,,,,,,,,,,,,,,,,,,,,,,,,1636055870.6212528,,,,,,,,,,801.180655002594,None,,,,,,,,,,,,,,,,,,,,,,,,,,,,,,,,,,,,,,,,,,799.4631731510162,None,800.4511210918427,None,2,1,0.5846130847930908,800.4511210918427,None,,,,,,,8000,001,02,2021_Nov_04_1446,task-switching-replication,2021.2.3,59.9951652608256,
2,37,experiment,02,standing,noswitch,incongruant,solid,square,blue,stimuli/solid-rectangle.png,stimuli/blue-square.png,1,,,,,,,,,,,,,,,,,,,,,,,,,0,0,0,0,1,0,1,0,0,36,36,36,,,,,,,,,,,,,,,,,,,,,,,,,,,,,,,,,,,,,,,,,,,,,,,,,,,,,,,,,,,,,,,1636055872.5671644,,,,,,,,,,803.1258430480957,None,,,,,,,,,,,,,,,,,,,,,,,,,,,,,,,,,,,,,,,,,,801.4093730449677,None,802.396427154541,None,1,1,0.5910170078277588,802.396427154541,None,,,,,,,8000,001,02,2021_Nov_04_1446,task-switching-replication,2021.2.3,59.9951652608256,
2,38,experiment,02,standing,switch,incongruant,dashed,triangle,yellow,stimuli/dashed-rectangle.png,stimuli/yellow-triangle.png,2,,,,,,,,,,,,,,,,,,,,,,,,,0,0,0,0,1,0,1,0,0,37,37,37,,,,,,,,,,,,,,,,,,,,,,,,,,,,,,,,,,,,,,,,,,,,,,,,,,,,,,,,,,,,,,,1636055874.7504327,,,,,,,,,,805.3090679645538,None,,,,,,,,,,,,,,,,,,,,,,,,,,,,,,,,,,,,,,,,,,803.3547120094299,None,804.3416180610657,None,2,1,0.8440380096435547,804.3416180610657,None,,,,,,,8000,001,02,2021_Nov_04_1446,task-switching-replication,2021.2.3,59.9951652608256,
2,39,experiment,02,standing,noswitch,congruant,dashed,triangle,blue,stimuli/dashed-rectangle.png,stimuli/blue-triangle.png,2,,,,,,,,,,,,,,,,,,,,,,,,,0,0,0,0,1,0,1,0,0,38,38,38,,,,,,,,,,,,,,,,,,,,,,,,,,,,,,,,,,,,,,,,,,,,,,,,,,,,,,,,,,,,,,,1636055876.576881,,,,,,,,,,807.1365029811859,None,,,,,,,,,,,,,,,,,,,,,,,,,,,,,,,,,,,,,,,,,,805.5381481647491,None,806.5256199836731,None,2,1,0.5029911994934082,806.5256199836731,None,,,,,,,8000,001,02,2021_Nov_04_1446,task-switching-replication,2021.2.3,59.9951652608256,
2,40,experiment,02,standing,switch,incongruant,solid,square,blue,stimuli/solid-rectangle.png,stimuli/blue-square.png,1,,,,,,,,,,,,,,,,,,,,,,,,,0,0,0,0,1,0,1,0,0,39,39,39,,,,,,,,,,,,,,,,,,,,,,,,,,,,,,,,,,,,,,,,,,,,,,,,,,,,,,,,,,,,,,,1636055878.760311,,,,,,,,,,809.318990945816,None,,,,,,,,,,,,,,,,,,,,,,,,,,,,,,,,,,,,,,,,,,807.3653869628906,None,808.3530609607697,None,1,1,0.8373978137969971,808.3530609607697,None,,,,,,,8000,001,02,2021_Nov_04_1446,task-switching-replication,2021.2.3,59.9951652608256,
2,41,experiment,02,standing,noswitch,incongruant,solid,triangle,yellow,stimuli/solid-rectangle.png,stimuli/yellow-triangle.png,2,,,,,,,,,,,,,,,,,,,,,,,,,0,0,0,0,1,0,1,0,0,40,40,40,,,,,,,,,,,,,,,,,,,,,,,,,,,,,,,,,,,,,,,,,,,,,,,,,,,,,,,,,,,,,,,1636055880.7685747,,,,,,,,,,811.3275699615479,None,,,,,,,,,,,,,,,,,,,,,,,,,,,,,,,,,,,,,,,,,,809.5476400852203,None,810.5354640483856,None,2,1,0.6583499908447266,810.5354640483856,None,,,,,,,8000,001,02,2021_Nov_04_1446,task-switching-replication,2021.2.3,59.9951652608256,
2,42,experiment,02,standing,switch,congruant,dashed,triangle,yellow,stimuli/dashed-rectangle.png,stimuli/yellow-triangle.png,2,,,,,,,,,,,,,,,,,,,,,,,,,0,0,0,0,1,0,1,0,0,41,41,41,,,,,,,,,,,,,,,,,,,,,,,,,,,,,,,,,,,,,,,,,,,,,,,,,,,,,,,,,,,,,,,1636055882.5962594,,,,,,,,,,813.1557550430298,None,,,,,,,,,,,,,,,,,,,,,,,,,,,,,,,,,,,,,,,,,,811.5566310882568,None,812.5446300506592,None,2,1,0.4621140956878662,812.5446300506592,None,,,,,,,8000,001,02,2021_Nov_04_1446,task-switching-replication,2021.2.3,59.9951652608256,
2,43,experiment,02,standing,noswitch,congruant,dashed,triangle,yellow,stimuli/dashed-rectangle.png,stimuli/yellow-triangle.png,2,,,,,,,,,,,,,,,,,,,,,,,,,0,0,0,0,1,0,1,0,0,42,42,42,,,,,,,,,,,,,,,,,,,,,,,,,,,,,,,,,,,,,,,,,,,,,,,,,,,,,,,,,,,,,,,1636055884.6607382,,,,,,,,,,815.2203631401062,None,,,,,,,,,,,,,,,,,,,,,,,,,,,,,,,,,,,,,,,,,,813.3846671581268,None,814.3724219799042,None,2,1,0.7411630153656006,814.3724219799042,None,,,,,,,8000,001,02,2021_Nov_04_1446,task-switching-replication,2021.2.3,59.9951652608256,
2,44,experiment,02,standing,noswitch,incongruant,dashed,square,yellow,stimuli/dashed-rectangle.png,stimuli/yellow-square.png,1,,,,,,,,,,,,,,,,,,,,,,,,,0,0,0,0,1,0,1,0,0,43,43,43,,,,,,,,,,,,,,,,,,,,,,,,,,,,,,,,,,,,,,,,,,,,,,,,,,,,,,,,,,,,,,,1636055886.3743348,,,,,,,,,,816.9331259727478,None,,,,,,,,,,,,,,,,,,,,,,,,,,,,,,,,,,,,,,,,,,815.4494650363922,None,816.4368090629578,None,1,1,0.3627898693084717,816.4368090629578,None,,,,,,,8000,001,02,2021_Nov_04_1446,task-switching-replication,2021.2.3,59.9951652608256,
2,45,experiment,02,standing,switch,incongruant,solid,triangle,yellow,stimuli/solid-rectangle.png,stimuli/yellow-triangle.png,2,,,,,,,,,,,,,,,,,,,,,,,,,0,0,0,0,1,0,1,0,0,44,44,44,,,,,,,,,,,,,,,,,,,,,,,,,,,,,,,,,,,,,,,,,,,,,,,,,,,,,,,,,,,,,,,1636055889.0331712,,,,,,,,,,819.5923471450806,None,,,,,,,,,,,,,,,,,,,,,,,,,,,,,,,,,,,,,,,,,,817.1621651649475,None,818.1504671573639,None,2,1,1.3080589771270752,818.1504671573639,None,,,,,,,8000,001,02,2021_Nov_04_1446,task-switching-replication,2021.2.3,59.9951652608256,
2,46,experiment,02,standing,noswitch,congruant,solid,square,yellow,stimuli/solid-rectangle.png,stimuli/yellow-square.png,2,,,,,,,,,,,,,,,,,,,,,,,,,0,0,0,0,1,0,1,0,0,45,45,45,0,0,0,0,,,,,,,,,,,,,,,,,,,,,,,,,,,,,,,,,,,,,,,,,,,,,,,,,,,,,,,,,,,1636055891.2182424,,,,,,,,,,,,,,,,,,,,,,,,,,,,,,,,,,,,821.7496551275253,822.7694900035858,821.781800031662,None,,,,,,,,,,,,,,819.821387052536,None,820.8097531795502,None,1,0,0.8089518547058105,820.8097531795502,None,,,,,,,8000,001,02,2021_Nov_04_1446,task-switching-replication,2021.2.3,59.9951652608256,
2,46,experiment,02,standing,noswitch,congruant,solid,square,yellow,stimuli/solid-rectangle.png,stimuli/yellow-square.png,2,,,,,,,,,,,,,,,,,,,,,,,,,0,0,0,0,1,0,1,0,0,45,45,45,,,,,,,,,,,,,,,,,,,,,,,,,,,,,,,,,,,,,,,,,,,,,,,,,,,,,,,,,,,,,,,,,,,,,,,,,826.7876060009003,None,,,,,,,,,,,,,,,,,,,,,,,,,,,,,,,,,,,,,,,,,,,,,,,,,,,,,,,,,8000,001,02,2021_Nov_04_1446,task-switching-replication,2021.2.3,59.9951652608256,
2,47,experiment,02,standing,noswitch,incongruant,solid,triangle,blue,stimuli/solid-rectangle.png,stimuli/blue-triangle.png,1,,,,,,,,,,,,,,,,,,,,,,,,,0,0,0,0,1,0,1,0,0,46,46,46,0,0,0,0,,,,,,,,,,,,,,,,,,,,,,,,,,,,,,,,,,,,,,,,,,,,,,,,,,,,,,,,,,,1636055898.8549855,,,,,,,,,,,,,,,,,,,,,,,,,,,,,,,,,,,,829.3864060640335,830.4064650535583,829.418291091919,None,,,,,,,,,,,,,,826.9842340946198,None,827.9721419811249,None,2,0,1.2832539081573486,827.9721419811249,None,,,,,,,8000,001,02,2021_Nov_04_1446,task-switching-replication,2021.2.3,59.9951652608256,
2,47,experiment,02,standing,noswitch,incongruant,solid,triangle,blue,stimuli/solid-rectangle.png,stimuli/blue-triangle.png,1,,,,,,,,,,,,,,,,,,,,,,,,,0,0,0,0,1,0,1,0,0,46,46,46,,,,,,,,,,,,,,,,,,,,,,,,,,,,,,,,,,,,,,,,,,,,,,,,,,,,,,,,,,,,,,,,,,,,,,,,,834.4240610599518,None,,,,,,,,,,,,,,,,,,,,,,,,,,,,,,,,,,,,,,,,,,,,,,,,,,,,,,,,,8000,001,02,2021_Nov_04_1446,task-switching-replication,2021.2.3,59.9951652608256,
2,48,experiment,02,standing,switch,incongruant,dashed,triangle,blue,stimuli/dashed-rectangle.png,stimuli/blue-triangle.png,2,,,,,,,,,,,,,,,,,,,,,,,,,0,0,0,0,1,0,1,0,0,47,47,47,,,,,0,0,0,0,,,,,,,,,,,,,,,,,,,,,,,,,,,,,,,,,,,,,,,,,,,,,,,,,,,,,,,1636055906.134132,,,,,,,,,,,,836.6655150651932,837.6861000061035,836.698333978653,None,,,,,,,,,,,,,,,,,,,,,,,,,,,,,,,,,,,,,,834.6207640171051,None,835.6096229553223,None,1,0,0.9771249294281006,835.6096229553223,None,,,,,,,8000,001,02,2021_Nov_04_1446,task-switching-replication,2021.2.3,59.9951652608256,
2,48,experiment,02,standing,switch,incongruant,dashed,triangle,blue,stimuli/dashed-rectangle.png,stimuli/blue-triangle.png,2,,,,,,,,,,,,,,,,,,,,,,,,,0,0,0,0,1,0,1,0,0,47,47,47,,,,,,,,,,,,,,,,,,,,,,,,,,,,,,,,,,,,,,,,,,,,,,,,,,,,,,,,,,,,,,,,,,,,,,,,,841.7020061016083,None,,,,,,,,,,,,,,,,,,,,,,,,,,,,,,,,,,,,,,,,,,,,,,,,,,,,,,,,,8000,001,02,2021_Nov_04_1446,task-switching-replication,2021.2.3,59.9951652608256,
2,49,experiment,02,standing,noswitch,incongruant,dashed,square,blue,stimuli/dashed-rectangle.png,stimuli/blue-square.png,1,,,,,,,,,,,,,,,,,,,,,,,,,0,0,0,0,1,0,1,0,0,48,48,48,,,,,,,,,,,,,,,,,,,,,,,,,,,,,,,,,,,,,,,,,,,,,,,,,,,,,,,,,,,,,,,1636055913.2325122,,,,,,,,,,843.791906118393,None,,,,,,,,,,,,,,,,,,,,,,,,,,,,,,,,,,,,,,,,,,841.898463010788,None,842.8854460716248,None,1,1,0.771881103515625,842.8854460716248,None,,,,,,,8000,001,02,2021_Nov_04_1446,task-switching-replication,2021.2.3,59.9951652608256,
,,,02,,,,,,,,,,,,,,,,,,,,,,,,,,,,,,,,,,0,0,0,0,1,0,1,0,,,,,,,,,,,,,,,,,,,,,,,,,,,,,,,,,,,,,,,,,,,,,,,,,,,,,,,,,,,,,,,,,,,,,,,,,,,,,,,,,,,,,,,,,,,,,,,,,,,,,,,,,,,,,,,,,,,,,,,,,,,,,,,,,,,,,,,8000,001,02,2021_Nov_04_1446,task-switching-replication,2021.2.3,59.9951652608256,
3,1,experiment,02,standing,buffer,buffer,dashed,square,blue,stimuli/dashed-rectangle.png,stimuli/blue-square.png,1,,,,,,,,,,,,,,,,,,,,,,,,,0,0,0,0,2,0,2,0,0,0,0,0,,,,,,,,,,,,,,,,,,,,,,,,,,,,,,,,,,,,,,,,,,,,,,,,,,,,,,,,,,,,,,,1636055998.2200606,,,,,,,,,,928.7803251743317,None,,,,,,,,,,,,,,,,,,,,,,,,,,,,,,844.0217671394348,None,2,79.09314203262329,844.0217671394348,None,923.2231271266937,None,2,3.376049041748047,923.2231271266937,None,926.7680420875549,None,927.7550511360168,None,1,1,0.914984941482544,927.7550511360168,None,,,,,,,8000,001,02,2021_Nov_04_1446,task-switching-replication,2021.2.3,59.9951652608256,
3,2,experiment,02,standing,noswitch,congruant,dashed,square,blue,stimuli/dashed-rectangle.png,stimuli/blue-square.png,1,,,,,,,,,,,,,,,,,,,,,,,,,0,0,0,0,2,0,2,0,0,1,1,1,,,,,,,,,,,,,,,,,,,,,,,,,,,,,,,,,,,,,,,,,,,,,,,,,,,,,,,,,,,,,,,1636055999.8712103,,,,,,,,,,930.4306330680847,None,,,,,,,,,,,,,,,,,,,,,,,,,,,,,,,,,,,,,,,,,,929.0094640254974,None,929.9969789981842,None,1,1,0.30596399307250977,929.9969789981842,None,,,,,,,8000,001,02,2021_Nov_04_1446,task-switching-replication,2021.2.3,59.9951652608256,
3,3,experiment,02,standing,noswitch,incongruant,dashed,triangle,blue,stimuli/dashed-rectangle.png,stimuli/blue-triangle.png,2,,,,,,,,,,,,,,,,,,,,,,,,,0,0,0,0,2,0,2,0,0,2,2,2,,,,,,,,,,,,,,,,,,,,,,,,,,,,,,,,,,,,,,,,,,,,,,,,,,,,,,,,,,,,,,,1636056001.7591188,,,,,,,,,,932.3178970813751,None,,,,,,,,,,,,,,,,,,,,,,,,,,,,,,,,,,,,,,,,,,930.6594841480255,None,931.6467080116272,None,2,1,0.5326168537139893,931.6467080116272,None,,,,,,,8000,001,02,2021_Nov_04_1446,task-switching-replication,2021.2.3,59.9951652608256,
3,4,experiment,02,standing,switch,incongruant,solid,square,blue,stimuli/solid-rectangle.png,stimuli/blue-square.png,1,,,,,,,,,,,,,,,,,,,,,,,,,0,0,0,0,2,0,2,0,0,3,3,3,,,,,,,,,,,,,,,,,,,,,,,,,,,,,,,,,,,,,,,,,,,,,,,,,,,,,,,,,,,,,,,1636056003.710833,,,,,,,,,,934.2699251174927,None,,,,,,,,,,,,,,,,,,,,,,,,,,,,,,,,,,,,,,,,,,932.5471811294556,None,933.5360231399536,None,1,1,0.5951430797576904,933.5360231399536,None,,,,,,,8000,001,02,2021_Nov_04_1446,task-switching-replication,2021.2.3,59.9951652608256,
3,5,experiment,02,standing,switch,incongruant,dashed,triangle,yellow,stimuli/dashed-rectangle.png,stimuli/yellow-triangle.png,2,,,,,,,,,,,,,,,,,,,,,,,,,0,0,0,0,2,0,2,0,0,4,4,4,,,,,,,,,,,,,,,,,,,,,,,,,,,,,,,,,,,,,,,,,,,,,,,,,,,,,,,,,,,,,,,1636056005.7747908,,,,,,,,,,936.3340101242065,None,,,,,,,,,,,,,,,,,,,,,,,,,,,,,,,,,,,,,,,,,,934.4995169639587,None,935.4872090816498,None,2,1,0.7394120693206787,935.4872090816498,None,,,,,,,8000,001,02,2021_Nov_04_1446,task-switching-replication,2021.2.3,59.9951652608256,
3,6,experiment,02,standing,noswitch,congruant,dashed,triangle,blue,stimuli/dashed-rectangle.png,stimuli/blue-triangle.png,2,,,,,,,,,,,,,,,,,,,,,,,,,0,0,0,0,2,0,2,0,0,5,5,5,,,,,,,,,,,,,,,,,,,,,,,,,,,,,,,,,,,,,,,,,,,,,,,,,,,,,,,,,,,,,,,1636056007.5428596,,,,,,,,,,938.1024031639099,None,,,,,,,,,,,,,,,,,,,,,,,,,,,,,,,,,,,,,,,,,,936.5630111694336,None,937.550656080246,None,2,1,0.42330408096313477,937.550656080246,None,,,,,,,8000,001,02,2021_Nov_04_1446,task-switching-replication,2021.2.3,59.9951652608256,
3,7,experiment,02,standing,noswitch,congruant,dashed,triangle,yellow,stimuli/dashed-rectangle.png,stimuli/yellow-triangle.png,2,,,,,,,,,,,,,,,,,,,,,,,,,0,0,0,0,2,0,2,0,0,6,6,6,,,,,,,,,,,,,,,,,,,,,,,,,,,,,,,,,,,,,,,,,,,,,,,,,,,,,,,,,,,,,,,1636056009.369077,,,,,,,,,,939.9286770820618,None,,,,,,,,,,,,,,,,,,,,,,,,,,,,,,,,,,,,,,,,,,938.3310430049896,None,939.3181459903717,None,2,1,0.506721019744873,939.3181459903717,None,,,,,,,8000,001,02,2021_Nov_04_1446,task-switching-replication,2021.2.3,59.9951652608256,
3,8,experiment,02,standing,noswitch,incongruant,dashed,square,blue,stimuli/dashed-rectangle.png,stimuli/blue-square.png,1,,,,,,,,,,,,,,,,,,,,,,,,,0,0,0,0,2,0,2,0,0,7,7,7,,,,,,,,,,,,,,,,,,,,,,,,,,,,,,,,,,,,,,,,,,,,,,,,,,,,,,,,,,,,,,,1636056011.0227745,,,,,,,,,,941.5814001560211,None,,,,,,,,,,,,,,,,,,,,,,,,,,,,,,,,,,,,,,,,,,940.1572740077972,None,941.1447811126709,None,1,1,0.28331494331359863,941.1447811126709,None,,,,,,,8000,001,02,2021_Nov_04_1446,task-switching-replication,2021.2.3,59.9951652608256,
3,9,experiment,02,standing,switch,congruant,solid,triangle,blue,stimuli/solid-rectangle.png,stimuli/blue-triangle.png,1,,,,,,,,,,,,,,,,,,,,,,,,,0,0,0,0,2,0,2,0,0,8,8,8,0,0,0,0,,,,,,,,,,,,,,,,,,,,,,,,,,,,,,,,,,,,,,,,,,,,,,,,,,,,,,,,,,,1636056013.2081735,,,,,,,,,,,,,,,,,,,,,,,,,,,,,,,,,,,,943.7395921945572,944.7597141265869,943.7719240188599,None,,,,,,,,,,,,,,941.810595035553,None,942.7987220287323,None,2,0,0.84440016746521,942.7987220287323,None,,,,,,,8000,001,02,2021_Nov_04_1446,task-switching-replication,2021.2.3,59.9951652608256,
3,9,experiment,02,standing,switch,congruant,solid,triangle,blue,stimuli/solid-rectangle.png,stimuli/blue-triangle.png,1,,,,,,,,,,,,,,,,,,,,,,,,,0,0,0,0,2,0,2,0,0,8,8,8,,,,,,,,,,,,,,,,,,,,,,,,,,,,,,,,,,,,,,,,,,,,,,,,,,,,,,,,,,,,,,,,,,,,,,,,,948.7793121337891,None,,,,,,,,,,,,,,,,,,,,,,,,,,,,,,,,,,,,,,,,,,,,,,,,,,,,,,,,,8000,001,02,2021_Nov_04_1446,task-switching-replication,2021.2.3,59.9951652608256,
3,10,experiment,02,standing,switch,congruant,dashed,square,yellow,stimuli/dashed-rectangle.png,stimuli/yellow-square.png,1,,,,,,,,,,,,,,,,,,,,,,,,,0,0,0,0,2,0,2,0,0,9,9,9,,,,,,,,,,,,,,,,,,,,,,,,,,,,,,,,,,,,,,,,,,,,,,,,,,,,,,,,,,,,,,,1636056020.313955,,,,,,,,,,950.8728029727936,None,,,,,,,,,,,,,,,,,,,,,,,,,,,,,,,,,,,,,,,,,,948.9758629798889,None,949.963564157486,None,1,1,0.7755448818206787,949.963564157486,None,,,,,,,8000,001,02,2021_Nov_04_1446,task-switching-replication,2021.2.3,59.9951652608256,
3,11,experiment,02,standing,switch,incongruant,solid,triangle,yellow,stimuli/solid-rectangle.png,stimuli/yellow-triangle.png,2,,,,,,,,,,,,,,,,,,,,,,,,,0,0,0,0,2,0,2,0,0,10,10,10,,,,,,,,,,,,,,,,,,,,,,,,,,,,,,,,,,,,,,,,,,,,,,,,,,,,,,,,,,,,,,,1636056022.3226445,,,,,,,,,,952.8817081451416,None,,,,,,,,,,,,,,,,,,,,,,,,,,,,,,,,,,,,,,,,,,951.1016550064087,None,952.0892000198364,None,2,1,0.6286971569061279,952.0892000198364,None,,,,,,,8000,001,02,2021_Nov_04_1446,task-switching-replication,2021.2.3,59.9951652608256,
3,12,experiment,02,standing,noswitch,congruant,solid,triangle,yellow,stimuli/solid-rectangle.png,stimuli/yellow-triangle.png,2,,,,,,,,,,,,,,,,,,,,,,,,,0,0,0,0,2,0,2,0,0,11,11,11,,,,,,,,,,,,,,,,,,,,,,,,,,,,,,,,,,,,,,,,,,,,,,,,,,,,,,,,,,,,,,,1636056024.2679837,,,,,,,,,,954.8276031017303,None,,,,,,,,,,,,,,,,,,,,,,,,,,,,,,,,,,,,,,,,,,953.1106190681458,None,954.0982930660248,None,2,1,0.6128599643707275,954.0982930660248,None,,,,,,,8000,001,02,2021_Nov_04_1446,task-switching-replication,2021.2.3,59.9951652608256,
3,13,experiment,02,standing,switch,congruant,dashed,triangle,blue,stimuli/dashed-rectangle.png,stimuli/blue-triangle.png,2,,,,,,,,,,,,,,,,,,,,,,,,,0,0,0,0,2,0,2,0,0,12,12,12,,,,,,,,,,,,,,,,,,,,,,,,,,,,,,,,,,,,,,,,,,,,,,,,,,,,,,,,,,,,,,,1636056026.2732286,,,,,,,,,,956.8328249454498,None,,,,,,,,,,,,,,,,,,,,,,,,,,,,,,,,,,,,,,,,,,955.0565509796143,None,956.0443391799927,None,2,1,0.6915240287780762,956.0443391799927,None,,,,,,,8000,001,02,2021_Nov_04_1446,task-switching-replication,2021.2.3,59.9951652608256,
3,14,experiment,02,standing,noswitch,congruant,dashed,triangle,yellow,stimuli/dashed-rectangle.png,stimuli/yellow-triangle.png,2,,,,,,,,,,,,,,,,,,,,,,,,,0,0,0,0,2,0,2,0,0,13,13,13,,,,,,,,,,,,,,,,,,,,,,,,,,,,,,,,,,,,,,,,,,,,,,,,,,,,,,,,,,,,,,,1636056028.1012459,,,,,,,,,,958.6608769893646,None,,,,,,,,,,,,,,,,,,,,,,,,,,,,,,,,,,,,,,,,,,957.0615229606628,None,958.0497009754181,None,2,1,0.47014689445495605,958.0497009754181,None,,,,,,,8000,001,02,2021_Nov_04_1446,task-switching-replication,2021.2.3,59.9951652608256,
3,15,experiment,02,standing,switch,incongruant,solid,square,blue,stimuli/solid-rectangle.png,stimuli/blue-square.png,1,,,,,,,,,,,,,,,,,,,,,,,,,0,0,0,0,2,0,2,0,0,14,14,14,,,,,,,,,,,,,,,,,,,,,,,,,,,,,,,,,,,,,,,,,,,,,,,,,,,,,,,,,,,,,,,1636056030.0486917,,,,,,,,,,960.6076200008392,None,,,,,,,,,,,,,,,,,,,,,,,,,,,,,,,,,,,,,,,,,,958.8897080421448,None,959.8774199485779,None,1,1,0.5865399837493896,959.8774199485779,None,,,,,,,8000,001,02,2021_Nov_04_1446,task-switching-replication,2021.2.3,59.9951652608256,
3,16,experiment,02,standing,switch,congruant,dashed,square,blue,stimuli/dashed-rectangle.png,stimuli/blue-square.png,1,,,,,,,,,,,,,,,,,,,,,,,,,0,0,0,0,2,0,2,0,0,15,15,15,,,,,,,,,,,,,,,,,,,,,,,,,,,,,,,,,,,,,,,,,,,,,,,,,,,,,,,,,,,,,,,1636056032.0533543,,,,,,,,,,962.6128859519958,None,,,,,,,,,,,,,,,,,,,,,,,,,,,,,,,,,,,,,,,,,,960.8366560935974,None,961.8244850635529,None,1,1,0.6452200412750244,961.8244850635529,None,,,,,,,8000,001,02,2021_Nov_04_1446,task-switching-replication,2021.2.3,59.9951652608256,
3,17,experiment,02,standing,noswitch,incongruant,dashed,triangle,yellow,stimuli/dashed-rectangle.png,stimuli/yellow-triangle.png,2,,,,,,,,,,,,,,,,,,,,,,,,,0,0,0,0,2,0,2,0,0,16,16,16,,,,,,,,,,,,,,,,,,,,,,,,,,,,,,,,,,,,,,,,,,,,,,,,,,,,,,,,,,,,,,,1636056033.705105,,,,,,,,,,964.263580083847,None,,,,,,,,,,,,,,,,,,,,,,,,,,,,,,,,,,,,,,,,,,962.8414859771729,None,963.8288681507111,None,2,1,0.3112449645996094,963.8288681507111,None,,,,,,,8000,001,02,2021_Nov_04_1446,task-switching-replication,2021.2.3,59.9951652608256,
