blockNum,trialNum,trialType,condition,posture,switchTrialType,congruantTrialType,cueType,shapeType,shapeColor,cueFileName,stimuliFileName,correctAnswer,untimedTrials.thisRepN,untimedTrials.thisTrialN,untimedTrials.thisN,untimedTrials.thisIndex,selectSolid1.thisRepN,selectSolid1.thisTrialN,selectSolid1.thisN,selectSolid1.thisIndex,selectDashed1.thisRepN,selectDashed1.thisTrialN,selectDashed1.thisN,selectDashed1.thisIndex,timedTrials.thisRepN,timedTrials.thisTrialN,timedTrials.thisN,timedTrials.thisIndex,selectSolid2.thisRepN,selectSolid2.thisTrialN,selectSolid2.thisN,selectSolid2.thisIndex,selectDashed2.thisRepN,selectDashed2.thisTrialN,selectDashed2.thisN,selectDashed2.thisIndex,postures.thisRepN,postures.thisTrialN,postures.thisN,postures.thisIndex,blocks.thisRepN,blocks.thisTrialN,blocks.thisN,blocks.thisIndex,trials.thisRepN,trials.thisTrialN,trials.thisN,trials.thisIndex,selectSolid.thisRepN,selectSolid.thisTrialN,selectSolid.thisN,selectSolid.thisIndex,selectDashed.thisRepN,selectDashed.thisTrialN,selectDashed.thisN,selectDashed.thisIndex,text_3.started,text_3.stopped,key_resp_2.keys,key_resp_2.rt,key_resp_2.started,key_resp_2.stopped,image_4.started,image_4.stopped,key_resp_4.keys,key_resp_4.rt,key_resp_4.started,key_resp_4.stopped,image_5.started,image_5.stopped,key_resp_5.keys,key_resp_5.rt,key_resp_5.started,key_resp_5.stopped,image_6.started,image_6.stopped,key_resp_6.keys,key_resp_6.rt,key_resp_6.started,key_resp_6.stopped,image_7.started,image_7.stopped,key_resp_7.keys,key_resp_7.rt,key_resp_7.started,key_resp_7.stopped,image_8.started,image_8.stopped,key_resp_8.keys,key_resp_8.rt,key_resp_8.started,key_resp_8.stopped,image_9.started,image_9.stopped,key_resp_9.keys,key_resp_9.rt,key_resp_9.started,key_resp_9.stopped,image_10.started,image_10.stopped,key_resp_10.keys,key_resp_10.rt,key_resp_10.started,key_resp_10.stopped,image_11.started,image_11.stopped,key_resp_11.keys,key_resp_11.rt,key_resp_11.started,key_resp_11.stopped,utcTime,cue_untimed_image.started,cue_untimed_image.stopped,stimuli_untimed_image.started,stimuli_untimed_image.stopped,untimed_resp.keys,untimed_resp.corr,untimed_resp.rt,untimed_resp.started,untimed_resp.stopped,text_2.started,text_2.stopped,sound_2.started,sound_2.stopped,image_3.started,image_3.stopped,image_12.started,image_12.stopped,key_resp_12.keys,key_resp_12.rt,key_resp_12.started,key_resp_12.stopped,image_13.started,image_13.stopped,key_resp_13.keys,key_resp_13.rt,key_resp_13.started,key_resp_13.stopped,cue_timed_image.started,cue_timed_image.stopped,stimuli_timed_image.started,stimuli_timed_image.stopped,timed_resp.keys,timed_resp.corr,timed_resp.rt,timed_resp.started,timed_resp.stopped,image.started,image.stopped,key_response.keys,key_response.rt,key_response.started,key_response.stopped,text.started,text.stopped,key_resp.keys,key_resp.rt,key_resp.started,key_resp.stopped,cue_image.started,cue_image.stopped,stimuli_image.started,stimuli_image.stopped,exp_resp.keys,exp_resp.corr,exp_resp.rt,exp_resp.started,exp_resp.stopped,sound_1.started,sound_1.stopped,image_2.started,image_2.stopped,participant,session,condition,date,expName,psychopyVersion,frameRate,
,,,10,,,,,,,,,,,,,,,,,,,,,,,,,,,,,,,,,,,,,,,,,,,,,,,,,,,,,,14.408689975738525,None,2,1.76609206199646,14.408689975738525,None,,,,,,,,,,,,,,,,,,,,,,,,,,,,,,,,,,,,,,,,,,,,,,,,,,,,,,,,,,,,,,,,,,,,,,,,,,,,,,,,,,,,,,,,,,,,,,,,,,,,,,,,,,,,,,,8001,001,10,2021_Nov_04_1531,task-switching-replication,2021.2.3,60.001688051030634,
,,,10,,,,,,,,,,,,,,,,,,,,,,,,,,,,,,,,,,,,,,,,,,,,,,,,,,,,,,,,,,,,16.215407848358154,None,2,1.6313080787658691,16.215407848358154,None,,,,,,,,,,,,,,,,,,,,,,,,,,,,,,,,,,,,,,,,,,,,,,,,,,,,,,,,,,,,,,,,,,,,,,,,,,,,,,,,,,,,,,,,,,,,,,,,,,,,,,,,,8001,001,10,2021_Nov_04_1531,task-switching-replication,2021.2.3,60.001688051030634,
,,,10,,,,,,,,,,,,,,,,,,,,,,,,,,,,,,,,,,,,,,,,,,,,,,,,,,,,,,,,,,,,,,,,,,17.874974966049194,None,1,7.449253797531128,17.874974966049194,None,,,,,,,,,,,,,,,,,,,,,,,,,,,,,,,,,,,,,,,,,,,,,,,,,,,,,,,,,,,,,,,,,,,,,,,,,,,,,,,,,,,,,,,,,,,,,,,,,,,8001,001,10,2021_Nov_04_1531,task-switching-replication,2021.2.3,60.001688051030634,
,,,10,,,,,,,,,,,,,,,,,,,,,,,,,,,,,,,,,,,,,,,,,,,,,,,,,,,,,,,,,,,,,,,,,,,,,,,,25.37198495864868,None,2,6.515751838684082,25.37198495864868,None,,,,,,,,,,,,,,,,,,,,,,,,,,,,,,,,,,,,,,,,,,,,,,,,,,,,,,,,,,,,,,,,,,,,,,,,,,,,,,,,,,,,,,,,,,,,,8001,001,10,2021_Nov_04_1531,task-switching-replication,2021.2.3,60.001688051030634,
,,,10,,,,,,,,,,,,,,,,,,,,,,,,,,,,,,,,,,,,,,,,,,,,,,,,,,,,,,,,,,,,,,,,,,,,,,,,,,,,,,31.927459001541138,None,2,3.5242738723754883,31.927459001541138,None,,,,,,,,,,,,,,,,,,,,,,,,,,,,,,,,,,,,,,,,,,,,,,,,,,,,,,,,,,,,,,,,,,,,,,,,,,,,,,,,,,,,,,,8001,001,10,2021_Nov_04_1531,task-switching-replication,2021.2.3,60.001688051030634,
,,,10,,,,,,,,,,,,,,,,,,,,,,,,,,,,,,,,,,,,,,,,,,,,,,,,,,,,,,,,,,,,,,,,,,,,,,,,,,,,,,,,,,,,35.4933078289032,None,1,5.254354000091553,35.4933078289032,None,,,,,,,,,,,,,,,,,,,,,,,,,,,,,,,,,,,,,,,,,,,,,,,,,,,,,,,,,,,,,,,,,,,,,,,,,,,,,,,,,8001,001,10,2021_Nov_04_1531,task-switching-replication,2021.2.3,60.001688051030634,
,,,10,,,,,,,,,,,,,,,,,,,,,,,,,,,,,,,,,,,,,,,,,,,,,,,,,,,,,,,,,,,,,,,,,,,,,,,,,,,,,,,,,,,,,,,,,,40.796305894851685,None,2,1.7668101787567139,40.796305894851685,None,,,,,,,,,,,,,,,,,,,,,,,,,,,,,,,,,,,,,,,,,,,,,,,,,,,,,,,,,,,,,,,,,,,,,,,,,,,8001,001,10,2021_Nov_04_1531,task-switching-replication,2021.2.3,60.001688051030634,
,,,10,,,,,,,,,,,,,,,,,,,,,,,,,,,,,,,,,,,,,,,,,,,,,,,,,,,,,,,,,,,,,,,,,,,,,,,,,,,,,,,,,,,,,,,,,,,,,,,,42.61097693443298,None,2,1.09968900680542,42.61097693443298,None,,,,,,,,,,,,,,,,,,,,,,,,,,,,,,,,,,,,,,,,,,,,,,,,,,,,,,,,,,,,,,,,,,,,,8001,001,10,2021_Nov_04_1531,task-switching-replication,2021.2.3,60.001688051030634,
,,,10,,,,,,,,,,,,,,,,,,,,,,,,,,,,,,,,,,,,,,,,,,,,,,,,,,,,,,,,,,,,,,,,,,,,,,,,,,,,,,,,,,,,,,,,,,,,,,,,,,,,,,43.74283790588379,None,2,32.40573716163635,43.74283790588379,None,,,,,,,,,,,,,,,,,,,,,,,,,,,,,,,,,,,,,,,,,,,,,,,,,,,,,,,,,,,,,,,8001,001,10,2021_Nov_04_1531,task-switching-replication,2021.2.3,60.001688051030634,
1,1,untimed,10,sitting,buffer,buffer,dashed,triangle,yellow,stimuli/dashed-rectangle.png,stimuli/yellow-triangle.png,2,0,0,0,0,,,,,,,,,,,,,,,,,,,,,,,,,,,,,,,,,,,,,,,,,,,,,,,,,,,,,,,,,,,,,,,,,,,,,,,,,,,,,,,,,,,,,,,,,,,,,,,1636057967.306872,76.22396683692932,None,77.19829988479614,None,2,1,0.4177420139312744,77.19829988479614,None,77.66625785827637,None,,,,,,,,,,,,,,,,,,,,,,,,,,,,,,,,,,,,,,,,,,,,,,,,,,,8001,001,10,2021_Nov_04_1531,task-switching-replication,2021.2.3,60.001688051030634,
1,2,untimed,10,sitting,noswitch,congruant,dashed,triangle,blue,stimuli/dashed-rectangle.png,stimuli/blue-triangle.png,2,0,1,1,1,,,,,0,0,0,0,,,,,,,,,,,,,,,,,,,,,,,,,,,,,,,,,,,,,,,,,,,,,,,,,,,,,,,,,,,,,,,,,,,,,,,,,,,,,,,,,,,,,,,1636057968.947559,77.88189196586609,None,78.86339688301086,None,1,0,0.3708469867706299,78.86339688301086,None,,,79.2960277557373,80.3123128414154,79.3106758594513,None,,,,,,,,,,,,,,,,,,,,,,,,,,,,,,,,,,,,,,,,,,,,,,,8001,001,10,2021_Nov_04_1531,task-switching-replication,2021.2.3,60.001688051030634,
1,2,untimed,10,sitting,noswitch,congruant,dashed,triangle,blue,stimuli/dashed-rectangle.png,stimuli/blue-triangle.png,2,0,1,1,1,,,,,,,,,,,,,,,,,,,,,,,,,,,,,,,,,,,,,,,,,,,,,,,,,,,,,,,,,,,,,,,,,,,,,,,,,,,,,,,,,,,,,,,,,,,,,,,,,,,,,,,,,84.31413197517395,None,,,,,,,,,,,,,,,,,,,,,,,,,,,,,,,,,,,,,,,,,,,,,,,,,,,8001,001,10,2021_Nov_04_1531,task-switching-replication,2021.2.3,60.001688051030634,
1,3,untimed,10,sitting,noswitch,incongruant,dashed,square,blue,stimuli/dashed-rectangle.png,stimuli/blue-square.png,1,0,2,2,2,,,,,,,,,,,,,,,,,,,,,,,,,,,,,,,,,,,,,,,,,,,,,,,,,,,,,,,,,,,,,,,,,,,,,,,,,,,,,,,,,,,,,,,,,,,,,,,1636057975.715449,84.51460599899292,None,85.48464798927307,None,1,1,0.5103659629821777,85.48464798927307,None,86.08134579658508,None,,,,,,,,,,,,,,,,,,,,,,,,,,,,,,,,,,,,,,,,,,,,,,,,,,,8001,001,10,2021_Nov_04_1531,task-switching-replication,2021.2.3,60.001688051030634,
1,4,untimed,10,sitting,noswitch,congruant,dashed,square,blue,stimuli/dashed-rectangle.png,stimuli/blue-square.png,1,0,3,3,3,,,,,,,,,,,,,,,,,,,,,,,,,,,,,,,,,,,,,,,,,,,,,,,,,,,,,,,,,,,,,,,,,,,,,,,,,,,,,,,,,,,,,,,,,,,,,,,1636057977.5279112,86.29911398887634,None,87.26991891860962,None,1,1,0.5723199844360352,87.26991891860962,None,87.89460897445679,None,,,,,,,,,,,,,,,,,,,,,,,,,,,,,,,,,,,,,,,,,,,,,,,,,,,8001,001,10,2021_Nov_04_1531,task-switching-replication,2021.2.3,60.001688051030634,
1,5,untimed,10,sitting,noswitch,incongruant,dashed,triangle,yellow,stimuli/dashed-rectangle.png,stimuli/yellow-triangle.png,2,0,4,4,4,,,,,,,,,,,,,,,,,,,,,,,,,,,,,,,,,,,,,,,,,,,,,,,,,,,,,,,,,,,,,,,,,,,,,,,,,,,,,,,,,,,,,,,,,,,,,,,1636057979.3593616,88.11239385604858,None,89.09966492652893,None,2,1,0.5537140369415283,89.09966492652893,None,89.72531485557556,None,,,,,,,,,,,,,,,,,,,,,,,,,,,,,,,,,,,,,,,,,,,,,,,,,,,8001,001,10,2021_Nov_04_1531,task-switching-replication,2021.2.3,60.001688051030634,
1,6,untimed,10,sitting,switch,congruant,solid,triangle,yellow,stimuli/solid-rectangle.png,stimuli/yellow-triangle.png,2,0,5,5,5,,,,,,,,,,,,,,,,,,,,,,,,,,,,,,,,,,,,,,,,,,,,,,,,,,,,,,,,,,,,,,,,,,,,,,,,,,,,,,,,,,,,,,,,,,,,,,,1636057981.2938366,89.94240188598633,None,90.9115788936615,None,2,1,0.6908309459686279,90.9115788936615,None,91.66049790382385,None,,,,,,,,,,,,,,,,,,,,,,,,,,,,,,,,,,,,,,,,,,,,,,,,,,,8001,001,10,2021_Nov_04_1531,task-switching-replication,2021.2.3,60.001688051030634,
1,7,untimed,10,sitting,noswitch,congruant,solid,square,yellow,stimuli/solid-rectangle.png,stimuli/yellow-square.png,2,0,6,6,6,,,,,,,,,,,,,,,,,,,,,,,,,,,,,,,,,,,,,,,,,,,,,,,,,,,,,,,,,,,,,,,,,,,,,,,,,,,,,,,,,,,,,,,,,,,,,,,1636057982.8798933,91.87842583656311,None,92.8602819442749,None,2,1,0.32015395164489746,92.8602819442749,None,93.27539277076721,None,,,,,,,,,,,,,,,,,,,,,,,,,,,,,,,,,,,,,,,,,,,,,,,,,,,8001,001,10,2021_Nov_04_1531,task-switching-replication,2021.2.3,60.001688051030634,
1,8,untimed,10,sitting,switch,incongruant,dashed,square,yellow,stimuli/dashed-rectangle.png,stimuli/yellow-square.png,1,0,7,7,7,,,,,,,,,,,,,,,,,,,,,,,,,,,,,,,,,,,,,,,,,,,,,,,,,,,,,,,,,,,,,,,,,,,,,,,,,,,,,,,,,,,,,,,,,,,,,,,1636057984.6973891,93.49885582923889,None,94.47339797019958,None,1,1,0.478971004486084,94.47339797019958,None,95.09196496009827,None,,,,,,,,,,,,,,,,,,,,,,,,,,,,,,,,,,,,,,,,,,,,,,,,,,,8001,001,10,2021_Nov_04_1531,task-switching-replication,2021.2.3,60.001688051030634,
1,9,untimed,10,sitting,switch,congruant,solid,square,blue,stimuli/solid-rectangle.png,stimuli/blue-square.png,1,0,8,8,8,,,,,,,,,,,,,,,,,,,,,,,,,,,,,,,,,,,,,,,,,,,,,,,,,,,,,,,,,,,,,,,,,,,,,,,,,,,,,,,,,,,,,,,,,,,,,,,1636057986.509453,95.31550693511963,None,96.28974199295044,None,1,1,0.5024399757385254,96.28974199295044,None,96.91926097869873,None,,,,,,,,,,,,,,,,,,,,,,,,,,,,,,,,,,,,,,,,,,,,,,,,,,,8001,001,10,2021_Nov_04_1531,task-switching-replication,2021.2.3,60.001688051030634,
1,10,untimed,10,sitting,switch,incongruant,dashed,triangle,blue,stimuli/dashed-rectangle.png,stimuli/blue-triangle.png,2,0,9,9,9,,,,,0,0,0,0,,,,,,,,,,,,,,,,,,,,,,,,,,,,,,,,,,,,,,,,,,,,,,,,,,,,,,,,,,,,,,,,,,,,,,,,,,,,,,,,,,,,,,,1636057988.5054271,97.14869093894958,None,98.11864995956421,None,1,0,0.6395618915557861,98.11864995956421,None,,,98.88685977458954,99.90930891036987,98.92041683197021,None,,,,,,,,,,,,,,,,,,,,,,,,,,,,,,,,,,,,,,,,,,,,,,,8001,001,10,2021_Nov_04_1531,task-switching-replication,2021.2.3,60.001688051030634,
1,10,untimed,10,sitting,switch,incongruant,dashed,triangle,blue,stimuli/dashed-rectangle.png,stimuli/blue-triangle.png,2,0,9,9,9,,,,,,,,,,,,,,,,,,,,,,,,,,,,,,,,,,,,,,,,,,,,,,,,,,,,,,,,,,,,,,,,,,,,,,,,,,,,,,,,,,,,,,,,,,,,,,,,,,,,,,,,,103.93023085594177,None,,,,,,,,,,,,,,,,,,,,,,,,,,,,,,,,,,,,,,,,,,,,,,,,,,,8001,001,10,2021_Nov_04_1531,task-switching-replication,2021.2.3,60.001688051030634,
1,11,untimed,10,sitting,noswitch,incongruant,dashed,square,yellow,stimuli/dashed-rectangle.png,stimuli/yellow-square.png,1,0,10,10,10,,,,,,,,,,,,,,,,,,,,,,,,,,,,,,,,,,,,,,,,,,,,,,,,,,,,,,,,,,,,,,,,,,,,,,,,,,,,,,,,,,,,,,,,,,,,,,,1636057995.2448568,104.12749195098877,None,105.09791588783264,None,1,1,0.41637396812438965,105.09791588783264,None,105.65458798408508,None,,,,,,,,,,,,,,,,,,,,,,,,,,,,,,,,,,,,,,,,,,,,,,,,,,,8001,001,10,2021_Nov_04_1531,task-switching-replication,2021.2.3,60.001688051030634,
1,12,untimed,10,sitting,switch,congruant,solid,triangle,blue,stimuli/solid-rectangle.png,stimuli/blue-triangle.png,1,0,11,11,11,,,,,,,,,,,,,,,,,,,,,,,,,,,,,,,,,,,,,,,,,,,,,,,,,,,,,,,,,,,,,,,,,,,,,,,,,,,,,,,,,,,,,,,,,,,,,,,1636057996.9419136,105.88392782211304,None,106.8545298576355,None,1,1,0.37377214431762695,106.8545298576355,None,107.3517107963562,None,,,,,,,,,,,,,,,,,,,,,,,,,,,,,,,,,,,,,,,,,,,,,,,,,,,8001,001,10,2021_Nov_04_1531,task-switching-replication,2021.2.3,60.001688051030634,
,,,10,,,,,,,,,,,,,,,,,,,,,,,,,,,,,,,,,,,,,,,,,,,,,,,,,,,,,,,,,,,,,,,,,,,,,,,,,,,,,,,,,,,,,,,,,,,,,,,,,,,,,,,,,,,,,,,,,,,,,,,,,,,,107.58131694793701,None,2,3.02826189994812,107.58131694793701,None,,,,,,,,,,,,,,,,,,,,,,,,,,,,,,,,,,,,,,,,,8001,001,10,2021_Nov_04_1531,task-switching-replication,2021.2.3,60.001688051030634,
,,,10,,,,,,,,,,,,,,,,,,,,,,,,,,,,,,,,,,,,,,,,,,,,,,,,,,,,,,,,,,,,,,,,,,,,,,,,,,,,,,,,,,,,,,,,,,,,,,,,,,,,,,,,,,,,,,,,,,,,,,,,,,,,,,,,,,110.73629999160767,None,2,5.001079082489014,110.73629999160767,None,,,,,,,,,,,,,,,,,,,,,,,,,,,,,,,,,,,8001,001,10,2021_Nov_04_1531,task-switching-replication,2021.2.3,60.001688051030634,
1,1,timed,10,sitting,buffer,buffer,dashed,triangle,blue,stimuli/dashed-rectangle.png,stimuli/blue-triangle.png,2,,,,,,,,,,,,,0,0,0,0,,,,,0,0,0,0,,,,,,,,,,,,,,,,,,,,,,,,,,,,,,,,,,,,,,,,,,,,,,,,,,,,,,,,,,,,,,,,,,,,,,,,,,,1636058007.1313124,,,,,,,,,,,,117.5128139257431,118.53410196304321,117.54613494873047,None,,,,,,,,,,,,,115.88077998161316,None,116.86898994445801,None,1,0,0.5476288795471191,116.86898994445801,None,,,,,,,,,,,,,,,,,,,,,,,,,,8001,001,10,2021_Nov_04_1531,task-switching-replication,2021.2.3,60.001688051030634,
1,1,timed,10,sitting,buffer,buffer,dashed,triangle,blue,stimuli/dashed-rectangle.png,stimuli/blue-triangle.png,2,,,,,,,,,,,,,0,0,0,0,,,,,,,,,,,,,,,,,,,,,,,,,,,,,,,,,,,,,,,,,,,,,,,,,,,,,,,,,,,,,,,,,,,,,,,,,,,,,,,,,,,,,,,,,,,,,122.55802488327026,None,,,,,,,,,,,,,,,,,,,,,,,,,,,,,,,,,,,,,,,,,,,,,,,,,,,8001,001,10,2021_Nov_04_1531,task-switching-replication,2021.2.3,60.001688051030634,
1,2,timed,10,sitting,noswitch,congruant,dashed,triangle,yellow,stimuli/dashed-rectangle.png,stimuli/yellow-triangle.png,2,,,,,,,,,,,,,0,1,1,1,,,,,,,,,,,,,,,,,,,,,,,,,,,,,,,,,,,,,,,,,,,,,,,,,,,,,,,,,,,,,,,,,,,,,,,,,,,,,,,,,,,1636058014.1205127,,,,,,,,,,124.53039979934692,None,,,,,,,,,,,,,,,,,122.75311398506165,None,123.74118995666504,None,2,1,0.632990837097168,123.74118995666504,None,,,,,,,,,,,,,,,,,,,,,,,,,,8001,001,10,2021_Nov_04_1531,task-switching-replication,2021.2.3,60.001688051030634,
1,3,timed,10,sitting,switch,congruant,solid,triangle,yellow,stimuli/solid-rectangle.png,stimuli/yellow-triangle.png,2,,,,,,,,,,,,,0,2,2,2,,,,,,,,,,,,,,,,,,,,,,,,,,,,,,,,,,,,,,,,,,,,,,,,,,,,,,,,,,,,,,,,,,,,,,,,,,,,,,,,,,,1636058015.7729542,,,,,,,,,,126.18276500701904,None,,,,,,,,,,,,,,,,,124.76042294502258,None,125.74907088279724,None,2,1,0.2852339744567871,125.74907088279724,None,,,,,,,,,,,,,,,,,,,,,,,,,,8001,001,10,2021_Nov_04_1531,task-switching-replication,2021.2.3,60.001688051030634,
1,4,timed,10,sitting,noswitch,incongruant,solid,square,blue,stimuli/solid-rectangle.png,stimuli/blue-square.png,1,,,,,,,,,,,,,0,3,3,3,,,,,,,,,,,,,,,,,,,,,,,,,,,,,,,,,,,,,,,,,,,,,,,,,,,,,,,,,,,,,,,,,,,,,,,,,,,,,,,,,,,1636058017.4842486,,,,,,,,,,127.89319777488708,None,,,,,,,,,,,,,,,,,126.41259980201721,None,127.40043997764587,None,1,1,0.3495650291442871,127.40043997764587,None,,,,,,,,,,,,,,,,,,,,,,,,,,8001,001,10,2021_Nov_04_1531,task-switching-replication,2021.2.3,60.001688051030634,
1,5,timed,10,sitting,noswitch,congruant,solid,triangle,blue,stimuli/solid-rectangle.png,stimuli/blue-triangle.png,1,,,,,,,,,,,,,0,4,4,4,,,,,,,,,,,,,,,,,,,,,,,,,,,,,,,,,,,,,,,,,,,,,,,,,,,,,,,,,,,,,,,,,,,,,,,,,,,,,,,,,,,1636058019.370937,,,,,,,,,,129.7808268070221,None,,,,,,,,,,,,,,,,,128.1225118637085,None,129.11053490638733,None,1,1,0.5705950260162354,129.11053490638733,None,,,,,,,,,,,,,,,,,,,,,,,,,,8001,001,10,2021_Nov_04_1531,task-switching-replication,2021.2.3,60.001688051030634,
1,6,timed,10,sitting,switch,congruant,dashed,square,yellow,stimuli/dashed-rectangle.png,stimuli/yellow-square.png,1,,,,,,,,,,,,,0,5,5,5,,,,,,,,,,,,,,,,,,,,,,,,,,,,,,,,,,,,,,,,,,,,,,,,,,,,,,,,,,,,,,,,,,,,,,,,,,,,,,,,,,,1636058021.199809,,,,,,,,,,131.6096489429474,None,,,,,,,,,,,,,,,,,130.01009488105774,None,130.99840092658997,None,1,1,0.46362996101379395,130.99840092658997,None,,,,,,,,,,,,,,,,,,,,,,,,,,8001,001,10,2021_Nov_04_1531,task-switching-replication,2021.2.3,60.001688051030634,
1,7,timed,10,sitting,noswitch,congruant,dashed,square,blue,stimuli/dashed-rectangle.png,stimuli/blue-square.png,1,,,,,,,,,,,,,0,6,6,6,,,,,,,,,,,,,,,,,,,,,,,,,,,,,,,,,,,,,,,,,,,,,,,,,,,,,,,,,,,,,,,,,,,,,,,,,,,,,,,,,,,1636058022.968262,,,,,,,,,,133.37809991836548,None,,,,,,,,,,,,,,,,,131.8387689590454,None,132.82613277435303,None,1,1,0.4319169521331787,132.82613277435303,None,,,,,,,,,,,,,,,,,,,,,,,,,,8001,001,10,2021_Nov_04_1531,task-switching-replication,2021.2.3,60.001688051030634,
1,8,timed,10,sitting,noswitch,congruant,dashed,square,yellow,stimuli/dashed-rectangle.png,stimuli/yellow-square.png,1,,,,,,,,,,,,,0,7,7,7,,,,,,,,,,,,,,,,,,,,,,,,,,,,,,,,,,,,,,,,,,,,,,,,,,,,,,,,,,,,,,,,,,,,,,,,,,,,,,,,,,,1636058024.736497,,,,,,,,,,135.14625787734985,None,,,,,,,,,,,,,,,,,133.60716795921326,None,134.59459590911865,None,1,1,0.4274280071258545,134.59459590911865,None,,,,,,,,,,,,,,,,,,,,,,,,,,8001,001,10,2021_Nov_04_1531,task-switching-replication,2021.2.3,60.001688051030634,
1,9,timed,10,sitting,switch,congruant,solid,triangle,blue,stimuli/solid-rectangle.png,stimuli/blue-triangle.png,1,,,,,,,,,,,,,0,8,8,8,,,,,,,,,,,,,,,,,,,,,,,,,,,,,,,,,,,,,,,,,,,,,,,,,,,,,,,,,,,,,,,,,,,,,,,,,,,,,,,,,,,1636058026.5641754,,,,,,,,,,136.97398495674133,None,,,,,,,,,,,,,,,,,135.37538695335388,None,136.36281180381775,None,1,1,0.4792780876159668,136.36281180381775,None,,,,,,,,,,,,,,,,,,,,,,,,,,8001,001,10,2021_Nov_04_1531,task-switching-replication,2021.2.3,60.001688051030634,
1,10,timed,10,sitting,switch,incongruant,dashed,triangle,blue,stimuli/dashed-rectangle.png,stimuli/blue-triangle.png,2,,,,,,,,,,,,,0,9,9,9,,,,,0,0,0,0,,,,,,,,,,,,,,,,,,,,,,,,,,,,,,,,,,,,,,,,,,,,,,,,,,,,,,,,,,,,,,,,,,,,,,,,,,,1636058028.6298256,,,,,,,,,,,,139.01126492023468,140.03284692764282,139.04483699798584,None,,,,,,,,,,,,,137.203204870224,None,138.19159483909607,None,1,0,0.6964540481567383,138.19159483909607,None,,,,,,,,,,,,,,,,,,,,,,,,,,8001,001,10,2021_Nov_04_1531,task-switching-replication,2021.2.3,60.001688051030634,
1,10,timed,10,sitting,switch,incongruant,dashed,triangle,blue,stimuli/dashed-rectangle.png,stimuli/blue-triangle.png,2,,,,,,,,,,,,,0,9,9,9,,,,,,,,,,,,,,,,,,,,,,,,,,,,,,,,,,,,,,,,,,,,,,,,,,,,,,,,,,,,,,,,,,,,,,,,,,,,,,,,,,,,,,,,,,,,,144.0511817932129,None,,,,,,,,,,,,,,,,,,,,,,,,,,,,,,,,,,,,,,,,,,,,,,,,,,,8001,001,10,2021_Nov_04_1531,task-switching-replication,2021.2.3,60.001688051030634,
1,11,timed,10,sitting,switch,incongruant,solid,triangle,blue,stimuli/solid-rectangle.png,stimuli/blue-triangle.png,1,,,,,,,,,,,,,0,10,10,10,,,,,,,,,,,,,,,,,,,,,,,,,,,,,,,,,,,,,,,,,,,,,,,,,,,,,,,,,,,,,,,,,,,,,,,,,,,,,,,,,,,1636058036.0287628,,,,,,,,,,146.43869185447693,None,,,,,,,,,,,,,,,,,144.24796295166016,None,145.23566579818726,None,1,1,1.0942578315734863,145.23566579818726,None,,,,,,,,,,,,,,,,,,,,,,,,,,8001,001,10,2021_Nov_04_1531,task-switching-replication,2021.2.3,60.001688051030634,
1,12,timed,10,sitting,switch,congruant,dashed,square,yellow,stimuli/dashed-rectangle.png,stimuli/yellow-square.png,1,,,,,,,,,,,,,0,11,11,11,,,,,0,0,0,0,,,,,,,,,,,,,,,,,,,,,,,,,,,,,,,,,,,,,,,,,,,,,,,,,,,,,,,,,,,,,,,,,,,,,,,,,,,1636058037.979307,,,,,,,,,,,,148.36085999011993,149.38158178329468,148.39340090751648,None,,,,,,,,,,,,,146.6681900024414,None,147.65654397010803,None,2,0,0.5884499549865723,147.65654397010803,None,,,,,,,,,,,,,,,,,,,,,,,,,,8001,001,10,2021_Nov_04_1531,task-switching-replication,2021.2.3,60.001688051030634,
1,12,timed,10,sitting,switch,congruant,dashed,square,yellow,stimuli/dashed-rectangle.png,stimuli/yellow-square.png,1,,,,,,,,,,,,,0,11,11,11,,,,,,,,,,,,,,,,,,,,,,,,,,,,,,,,,,,,,,,,,,,,,,,,,,,,,,,,,,,,,,,,,,,,,,,,,,,,,,,,,,,,,,,,,,,,,153.40241980552673,None,,,,,,,,,,,,,,,,,,,,,,,,,,,,,,,,,,,,,,,,,,,,,,,,,,,8001,001,10,2021_Nov_04_1531,task-switching-replication,2021.2.3,60.001688051030634,
1,13,timed,10,sitting,noswitch,congruant,dashed,square,blue,stimuli/dashed-rectangle.png,stimuli/blue-square.png,1,,,,,,,,,,,,,0,12,12,12,,,,,,,,,,,,,,,,,,,,,,,,,,,,,,,,,,,,,,,,,,,,,,,,,,,,,,,,,,,,,,,,,,,,,,,,,,,,,,,,,,,1636058045.1435637,,,,,,,,,,155.55302500724792,None,,,,,,,,,,,,,,,,,153.59919595718384,None,154.58702087402344,None,1,1,0.8580198287963867,154.58702087402344,None,,,,,,,,,,,,,,,,,,,,,,,,,,8001,001,10,2021_Nov_04_1531,task-switching-replication,2021.2.3,60.001688051030634,
1,14,timed,10,sitting,noswitch,incongruant,dashed,triangle,yellow,stimuli/dashed-rectangle.png,stimuli/yellow-triangle.png,2,,,,,,,,,,,,,0,13,13,13,,,,,,,,,,,,,,,,,,,,,,,,,,,,,,,,,,,,,,,,,,,,,,,,,,,,,,,,,,,,,,,,,,,,,,,,,,,,,,,,,,,1636058046.9163213,,,,,,,,,,157.32574081420898,None,,,,,,,,,,,,,,,,,155.78472685813904,None,156.7731339931488,None,2,1,0.3989098072052002,156.7731339931488,None,,,,,,,,,,,,,,,,,,,,,,,,,,8001,001,10,2021_Nov_04_1531,task-switching-replication,2021.2.3,60.001688051030634,
1,15,timed,10,sitting,noswitch,incongruant,dashed,square,blue,stimuli/dashed-rectangle.png,stimuli/blue-square.png,1,,,,,,,,,,,,,0,14,14,14,,,,,,,,,,,,,,,,,,,,,,,,,,,,,,,,,,,,,,,,,,,,,,,,,,,,,,,,,,,,,,,,,,,,,,,,,,,,,,,,,,,1636058048.628089,,,,,,,,,,159.03717589378357,None,,,,,,,,,,,,,,,,,157.55489897727966,None,158.54405188560486,None,1,1,0.34975600242614746,158.54405188560486,None,,,,,,,,,,,,,,,,,,,,,,,,,,8001,001,10,2021_Nov_04_1531,task-switching-replication,2021.2.3,60.001688051030634,
1,16,timed,10,sitting,switch,incongruant,solid,triangle,yellow,stimuli/solid-rectangle.png,stimuli/yellow-triangle.png,2,,,,,,,,,,,,,0,15,15,15,,,,,,,,,,,,,,,,,,,,,,,,,,,,,,,,,,,,,,,,,,,,,,,,,,,,,,,,,,,,,,,,,,,,,,,,,,,,,,,,,,,1636058050.5752208,,,,,,,,,,160.98459100723267,None,,,,,,,,,,,,,,,,,159.26617693901062,None,160.25524282455444,None,2,1,0.6229300498962402,160.25524282455444,None,,,,,,,,,,,,,,,,,,,,,,,,,,8001,001,10,2021_Nov_04_1531,task-switching-replication,2021.2.3,60.001688051030634,
1,17,timed,10,sitting,switch,congruant,dashed,triangle,blue,stimuli/dashed-rectangle.png,stimuli/blue-triangle.png,2,,,,,,,,,,,,,0,16,16,16,,,,,0,0,0,0,,,,,,,,,,,,,,,,,,,,,,,,,,,,,,,,,,,,,,,,,,,,,,,,,,,,,,,,,,,,,,,,,,,,,,,,,,,1636058052.5823176,,,,,,,,,,,,162.9638329744339,163.98677587509155,162.9968810081482,None,,,,,,,,,,,,,161.21353578567505,None,162.20126390457153,None,1,0,0.651745080947876,162.20126390457153,None,,,,,,,,,,,,,,,,,,,,,,,,,,8001,001,10,2021_Nov_04_1531,task-switching-replication,2021.2.3,60.001688051030634,
1,17,timed,10,sitting,switch,congruant,dashed,triangle,blue,stimuli/dashed-rectangle.png,stimuli/blue-triangle.png,2,,,,,,,,,,,,,0,16,16,16,,,,,,,,,,,,,,,,,,,,,,,,,,,,,,,,,,,,,,,,,,,,,,,,,,,,,,,,,,,,,,,,,,,,,,,,,,,,,,,,,,,,,,,,,,,,,168.00814294815063,None,,,,,,,,,,,,,,,,,,,,,,,,,,,,,,,,,,,,,,,,,,,,,,,,,,,8001,001,10,2021_Nov_04_1531,task-switching-replication,2021.2.3,60.001688051030634,
1,18,timed,10,sitting,switch,congruant,solid,triangle,yellow,stimuli/solid-rectangle.png,stimuli/yellow-triangle.png,2,,,,,,,,,,,,,0,17,17,17,,,,,,,,,,,,,,,,,,,,,,,,,,,,,,,,,,,,,,,,,,,,,,,,,,,,,,,,,,,,,,,,,,,,,,,,,,,,,,,,,,,1636058059.5115948,,,,,,,,,,169.92137789726257,None,,,,,,,,,,,,,,,,,168.20463490486145,None,169.19203281402588,None,2,1,0.6250720024108887,169.19203281402588,None,,,,,,,,,,,,,,,,,,,,,,,,,,8001,001,10,2021_Nov_04_1531,task-switching-replication,2021.2.3,60.001688051030634,
1,19,timed,10,sitting,noswitch,incongruant,solid,square,blue,stimuli/solid-rectangle.png,stimuli/blue-square.png,1,,,,,,,,,,,,,0,18,18,18,,,,,,,,,,,,,,,,,,,,,,,,,,,,,,,,,,,,,,,,,,,,,,,,,,,,,,,,,,,,,,,,,,,,,,,,,,,,,,,,,,,1636058061.402342,,,,,,,,,,171.81149888038635,None,,,,,,,,,,,,,,,,,170.1503767967224,None,171.13797688484192,None,1,1,0.5099790096282959,171.13797688484192,None,,,,,,,,,,,,,,,,,,,,,,,,,,8001,001,10,2021_Nov_04_1531,task-switching-replication,2021.2.3,60.001688051030634,
1,20,timed,10,sitting,noswitch,congruant,solid,square,blue,stimuli/solid-rectangle.png,stimuli/blue-square.png,1,,,,,,,,,,,,,0,19,19,19,,,,,,,,,,,,,,,,,,,,,,,,,,,,,,,,,,,,,,,,,,,,,,,,,,,,,,,,,,,,,,,,,,,,,,,,,,,,,,,,,,,1636058063.229987,,,,,,,,,,173.63969588279724,None,,,,,,,,,,,,,,,,,172.04044198989868,None,173.02861380577087,None,1,1,0.4892129898071289,173.02861380577087,None,,,,,,,,,,,,,,,,,,,,,,,,,,8001,001,10,2021_Nov_04_1531,task-switching-replication,2021.2.3,60.001688051030634,
1,21,timed,10,sitting,noswitch,incongruant,solid,square,yellow,stimuli/solid-rectangle.png,stimuli/yellow-square.png,2,,,,,,,,,,,,,0,20,20,20,,,,,,,,,,,,,,,,,,,,,,,,,,,,,,,,,,,,,,,,,,,,,,,,,,,,,,,,,,,,,,,,,,,,,,,,,,,,,,,,,,,1636058065.1800983,,,,,,,,,,175.58900690078735,None,,,,,,,,,,,,,,,,,173.86884689331055,None,174.85657596588135,None,2,1,0.5738627910614014,174.85657596588135,None,,,,,,,,,,,,,,,,,,,,,,,,,,8001,001,10,2021_Nov_04_1531,task-switching-replication,2021.2.3,60.001688051030634,
1,22,timed,10,sitting,noswitch,congruant,solid,square,yellow,stimuli/solid-rectangle.png,stimuli/yellow-square.png,2,,,,,,,,,,,,,0,21,21,21,,,,,,,,,,,,,,,,,,,,,,,,,,,,,,,,,,,,,,,,,,,,,,,,,,,,,,,,,,,,,,,,,,,,,,,,,,,,,,,,,,,1636058066.8303177,,,,,,,,,,177.24024081230164,None,,,,,,,,,,,,,,,,,175.81831979751587,None,176.80645084381104,None,2,1,0.30457401275634766,176.80645084381104,None,,,,,,,,,,,,,,,,,,,,,,,,,,8001,001,10,2021_Nov_04_1531,task-switching-replication,2021.2.3,60.001688051030634,
1,23,timed,10,sitting,switch,congruant,dashed,triangle,yellow,stimuli/dashed-rectangle.png,stimuli/yellow-triangle.png,2,,,,,,,,,,,,,0,22,22,22,,,,,,,,,,,,,,,,,,,,,,,,,,,,,,,,,,,,,,,,,,,,,,,,,,,,,,,,,,,,,,,,,,,,,,,,,,,,,,,,,,,1636058068.540789,,,,,,,,,,178.95055198669434,None,,,,,,,,,,,,,,,,,177.4694468975067,None,178.4574418067932,None,2,1,0.3526020050048828,178.4574418067932,None,,,,,,,,,,,,,,,,,,,,,,,,,,8001,001,10,2021_Nov_04_1531,task-switching-replication,2021.2.3,60.001688051030634,
1,24,timed,10,sitting,switch,congruant,solid,square,yellow,stimuli/solid-rectangle.png,stimuli/yellow-square.png,2,,,,,,,,,,,,,0,23,23,23,,,,,,,,,,,,,,,,,,,,,,,,,,,,,,,,,,,,,,,,,,,,,,,,,,,,,,,,,,,,,,,,,,,,,,,,,,,,,,,,,,,1636058070.3098016,,,,,,,,,,180.7195839881897,None,,,,,,,,,,,,,,,,,179.1794707775116,None,180.16771483421326,None,2,1,0.41715312004089355,180.16771483421326,None,,,,,,,,,,,,,,,,,,,,,,,,,,8001,001,10,2021_Nov_04_1531,task-switching-replication,2021.2.3,60.001688051030634,
1,1,experiment,10,sitting,buffer,buffer,solid,square,blue,stimuli/solid-rectangle.png,stimuli/blue-square.png,1,,,,,,,,,,,,,,,,,,,,,,,,,0,0,0,0,0,0,0,0,0,0,0,0,,,,,,,,,180.96231698989868,None,2,3.633739948272705,180.96231698989868,None,,,,,,,,,,,,,,,,,,,,,,,,,,,,,,,,,,,,,,,,,,,,,,,,,1636058079.2764852,,,,,,,,,,189.6865918636322,None,,,,,,,,,,,,,,,,,,,,,,,,,,184.68966579437256,None,2,1.8142859935760498,184.68966579437256,None,186.6442849636078,None,2,1.3876628875732422,186.6442849636078,None,188.20609188079834,None,189.19357299804688,None,1,1,0.3802058696746826,189.19357299804688,None,,,,,8001,001,10,2021_Nov_04_1531,task-switching-replication,2021.2.3,60.001688051030634,
1,2,experiment,10,sitting,noswitch,incongruant,solid,triangle,yellow,stimuli/solid-rectangle.png,stimuli/yellow-triangle.png,2,,,,,,,,,,,,,,,,,,,,,,,,,0,0,0,0,0,0,0,0,0,1,1,1,,,,,,,,,,,,,,,,,,,,,,,,,,,,,,,,,,,,,,,,,,,,,,,,,,,,,,,,,,,,,,,1636058080.9331446,,,,,,,,,,191.3423798084259,None,,,,,,,,,,,,,,,,,,,,,,,,,,,,,,,,,,,,,,189.91561484336853,None,190.90387177467346,None,2,1,0.31386613845825195,190.90387177467346,None,,,,,8001,001,10,2021_Nov_04_1531,task-switching-replication,2021.2.3,60.001688051030634,
1,3,experiment,10,sitting,noswitch,incongruant,solid,square,blue,stimuli/solid-rectangle.png,stimuli/blue-square.png,1,,,,,,,,,,,,,,,,,,,,,,,,,0,0,0,0,0,0,0,0,0,2,2,2,,,,,,,,,,,,,,,,,,,,,,,,,,,,,,,,,,,,,,,,,,,,,,,,,,,,,,,,,,,,,,,1636058082.7036598,,,,,,,,,,193.11272192001343,None,,,,,,,,,,,,,,,,,,,,,,,,,,,,,,,,,,,,,,191.57147479057312,None,192.5595669746399,None,1,1,0.40938901901245117,192.5595669746399,None,,,,,8001,001,10,2021_Nov_04_1531,task-switching-replication,2021.2.3,60.001688051030634,
1,4,experiment,10,sitting,noswitch,congruant,solid,triangle,blue,stimuli/solid-rectangle.png,stimuli/blue-triangle.png,1,,,,,,,,,,,,,,,,,,,,,,,,,0,0,0,0,0,0,0,0,0,3,3,3,0,0,0,0,,,,,,,,,,,,,,,,,,,,,,,,,,,,,,,,,,,,,,,,,,,,,,,,,,,,,,,,,,,1636058084.7140946,,,,,,,,,,,,,,,,,,,,,,,,,,,,,,,,,,,,,,,,,,,,,,,,,193.34236788749695,None,194.33063793182373,None,2,0,0.6384539604187012,194.33063793182373,None,195.09561789035797,196.11574578285217,195.12793397903442,None,8001,001,10,2021_Nov_04_1531,task-switching-replication,2021.2.3,60.001688051030634,
1,4,experiment,10,sitting,noswitch,congruant,solid,triangle,blue,stimuli/solid-rectangle.png,stimuli/blue-triangle.png,1,,,,,,,,,,,,,,,,,,,,,,,,,0,0,0,0,0,0,0,0,0,3,3,3,,,,,,,,,,,,,,,,,,,,,,,,,,,,,,,,,,,,,,,,,,,,,,,,,,,,,,,,,,,,,,,,,,,,,,,,,200.13615894317627,None,,,,,,,,,,,,,,,,,,,,,,,,,,,,,,,,,,,,,,,,,,,,,,,,,,,8001,001,10,2021_Nov_04_1531,task-switching-replication,2021.2.3,60.001688051030634,
1,5,experiment,10,sitting,switch,incongruant,dashed,triangle,blue,stimuli/dashed-rectangle.png,stimuli/blue-triangle.png,2,,,,,,,,,,,,,,,,,,,,,,,,,0,0,0,0,0,0,0,0,0,4,4,4,,,,,0,0,0,0,,,,,,,,,,,,,,,,,,,,,,,,,,,,,,,,,,,,,,,,,,,,,,,,,,,,,,,1636058091.5820074,,,,,,,,,,,,201.9635339975357,202.9842438697815,201.99632692337036,None,,,,,,,,,,,,,,,,,,,,,,,,,,,,,,,,,,200.33310985565186,None,201.32088685035706,None,1,0,0.5269780158996582,201.32088685035706,None,,,,,8001,001,10,2021_Nov_04_1531,task-switching-replication,2021.2.3,60.001688051030634,
1,5,experiment,10,sitting,switch,incongruant,dashed,triangle,blue,stimuli/dashed-rectangle.png,stimuli/blue-triangle.png,2,,,,,,,,,,,,,,,,,,,,,,,,,0,0,0,0,0,0,0,0,0,4,4,4,,,,,,,,,,,,,,,,,,,,,,,,,,,,,,,,,,,,,,,,,,,,,,,,,,,,,,,,,,,,,,,,,,,,,,,,,207.00741481781006,None,,,,,,,,,,,,,,,,,,,,,,,,,,,,,,,,,,,,,,,,,,,,,,,,,,,8001,001,10,2021_Nov_04_1531,task-switching-replication,2021.2.3,60.001688051030634,
1,6,experiment,10,sitting,noswitch,incongruant,dashed,square,blue,stimuli/dashed-rectangle.png,stimuli/blue-square.png,1,,,,,,,,,,,,,,,,,,,,,,,,,0,0,0,0,0,0,0,0,0,5,5,5,,,,,,,,,,,,,,,,,,,,,,,,,,,,,,,,,,,,,,,,,,,,,,,,,,,,,,,,,,,,,,,1636058098.5701284,,,,,,,,,,208.98009181022644,None,,,,,,,,,,,,,,,,,,,,,,,,,,,,,,,,,,,,,,207.2040719985962,None,208.1917848587036,None,1,1,0.6787240505218506,208.1917848587036,None,,,,,8001,001,10,2021_Nov_04_1531,task-switching-replication,2021.2.3,60.001688051030634,
1,7,experiment,10,sitting,noswitch,congruant,dashed,square,yellow,stimuli/dashed-rectangle.png,stimuli/yellow-square.png,1,,,,,,,,,,,,,,,,,,,,,,,,,0,0,0,0,0,0,0,0,0,6,6,6,,,,,,,,,,,,,,,,,,,,,,,,,,,,,,,,,,,,,,,,,,,,,,,,,,,,,,,,,,,,,,,1636058100.871517,,,,,,,,,,211.2811508178711,None,,,,,,,,,,,,,,,,,,,,,,,,,,,,,,,,,,,,,,209.20926880836487,None,210.19653582572937,None,1,1,0.9361691474914551,210.19653582572937,None,,,,,8001,001,10,2021_Nov_04_1531,task-switching-replication,2021.2.3,60.001688051030634,
1,8,experiment,10,sitting,switch,incongruant,solid,triangle,yellow,stimuli/solid-rectangle.png,stimuli/yellow-triangle.png,2,,,,,,,,,,,,,,,,,,,,,,,,,0,0,0,0,0,0,0,0,0,7,7,7,,,,,,,,,,,,,,,,,,,,,,,,,,,,,,,,,,,,,,,,,,,,,,,,,,,,,,,,,,,,,,,1636058102.9984684,,,,,,,,,,213.40750098228455,None,,,,,,,,,,,,,,,,,,,,,,,,,,,,,,,,,,,,,,211.51060795783997,None,212.49831986427307,None,2,1,0.7656610012054443,212.49831986427307,None,,,,,8001,001,10,2021_Nov_04_1531,task-switching-replication,2021.2.3,60.001688051030634,
1,9,experiment,10,sitting,noswitch,congruant,solid,triangle,yellow,stimuli/solid-rectangle.png,stimuli/yellow-triangle.png,2,,,,,,,,,,,,,,,,,,,,,,,,,0,0,0,0,0,0,0,0,0,8,8,8,,,,,,,,,,,,,,,,,,,,,,,,,,,,,,,,,,,,,,,,,,,,,,,,,,,,,,,,,,,,,,,1636058104.708669,,,,,,,,,,215.11848378181458,None,,,,,,,,,,,,,,,,,,,,,,,,,,,,,,,,,,,,,,213.63819289207458,None,214.62580585479736,None,2,1,0.33796000480651855,214.62580585479736,None,,,,,8001,001,10,2021_Nov_04_1531,task-switching-replication,2021.2.3,60.001688051030634,
1,10,experiment,10,sitting,noswitch,congruant,solid,square,yellow,stimuli/solid-rectangle.png,stimuli/yellow-square.png,2,,,,,,,,,,,,,,,,,,,,,,,,,0,0,0,0,0,0,0,0,0,9,9,9,,,,,,,,,,,,,,,,,,,,,,,,,,,,,,,,,,,,,,,,,,,,,,,,,,,,,,,,,,,,,,,1636058106.8317757,,,,,,,,,,217.2416877746582,None,,,,,,,,,,,,,,,,,,,,,,,,,,,,,,,,,,,,,,215.347473859787,None,216.3348469734192,None,2,1,0.8078389167785645,216.3348469734192,None,,,,,8001,001,10,2021_Nov_04_1531,task-switching-replication,2021.2.3,60.001688051030634,
1,11,experiment,10,sitting,switch,congruant,dashed,triangle,yellow,stimuli/dashed-rectangle.png,stimuli/yellow-triangle.png,2,,,,,,,,,,,,,,,,,,,,,,,,,0,0,0,0,0,0,0,0,0,10,10,10,,,,,,,,,,,,,,,,,,,,,,,,,,,,,,,,,,,,,,,,,,,,,,,,,,,,,,,,,,,,,,,1636058109.132003,,,,,,,,,,219.5419089794159,None,,,,,,,,,,,,,,,,,,,,,,,,,,,,,,,,,,,,,,217.47069382667542,None,218.45777297019958,None,2,1,0.9663209915161133,218.45777297019958,None,,,,,8001,001,10,2021_Nov_04_1531,task-switching-replication,2021.2.3,60.001688051030634,
1,12,experiment,10,sitting,noswitch,incongruant,dashed,square,blue,stimuli/dashed-rectangle.png,stimuli/blue-square.png,1,,,,,,,,,,,,,,,,,,,,,,,,,0,0,0,0,0,0,0,0,0,11,11,11,,,,,,,,,,,,,,,,,,,,,,,,,,,,,,,,,,,,,,,,,,,,,,,,,,,,,,,,,,,,,,,1636058110.9610388,,,,,,,,,,221.37102580070496,None,,,,,,,,,,,,,,,,,,,,,,,,,,,,,,,,,,,,,,219.7711808681488,None,220.75974082946777,None,1,1,0.5035669803619385,220.75974082946777,None,,,,,8001,001,10,2021_Nov_04_1531,task-switching-replication,2021.2.3,60.001688051030634,
1,13,experiment,10,sitting,noswitch,incongruant,dashed,triangle,blue,stimuli/dashed-rectangle.png,stimuli/blue-triangle.png,2,,,,,,,,,,,,,,,,,,,,,,,,,0,0,0,0,0,0,0,0,0,12,12,12,,,,,,,,,,,,,,,,,,,,,,,,,,,,,,,,,,,,,,,,,,,,,,,,,,,,,,,,,,,,,,,1636058113.0884714,,,,,,,,,,223.49760484695435,None,,,,,,,,,,,,,,,,,,,,,,,,,,,,,,,,,,,,,,221.60026478767395,None,222.5880799293518,None,2,1,0.7805559635162354,222.5880799293518,None,,,,,8001,001,10,2021_Nov_04_1531,task-switching-replication,2021.2.3,60.001688051030634,
1,14,experiment,10,sitting,noswitch,incongruant,dashed,square,yellow,stimuli/dashed-rectangle.png,stimuli/yellow-square.png,1,,,,,,,,,,,,,,,,,,,,,,,,,0,0,0,0,0,0,0,0,0,13,13,13,,,,,,,,,,,,,,,,,,,,,,,,,,,,,,,,,,,,,,,,,,,,,,,,,,,,,,,,,,,,,,,1636058115.0936768,,,,,,,,,,225.5030369758606,None,,,,,,,,,,,,,,,,,,,,,,,,,,,,,,,,,,,,,,223.72680592536926,None,224.714772939682,None,1,1,0.6777629852294922,224.714772939682,None,,,,,8001,001,10,2021_Nov_04_1531,task-switching-replication,2021.2.3,60.001688051030634,
1,15,experiment,10,sitting,noswitch,congruant,dashed,square,blue,stimuli/dashed-rectangle.png,stimuli/blue-square.png,1,,,,,,,,,,,,,,,,,,,,,,,,,0,0,0,0,0,0,0,0,0,14,14,14,,,,,,,,,,,,,,,,,,,,,,,,,,,,,,,,,,,,,,,,,,,,,,,,,,,,,,,,,,,,,,,1636058117.218105,,,,,,,,,,227.62803292274475,None,,,,,,,,,,,,,,,,,,,,,,,,,,,,,,,,,,,,,,225.73225593566895,None,226.72057700157166,None,1,1,0.7610399723052979,226.72057700157166,None,,,,,8001,001,10,2021_Nov_04_1531,task-switching-replication,2021.2.3,60.001688051030634,
1,16,experiment,10,sitting,switch,congruant,solid,square,blue,stimuli/solid-rectangle.png,stimuli/blue-square.png,1,,,,,,,,,,,,,,,,,,,,,,,,,0,0,0,0,0,0,0,0,0,15,15,15,,,,,,,,,,,,,,,,,,,,,,,,,,,,,,,,,,,,,,,,,,,,,,,,,,,,,,,,,,,,,,,1636058119.0463727,,,,,,,,,,229.45629286766052,None,,,,,,,,,,,,,,,,,,,,,,,,,,,,,,,,,,,,,,227.85712385177612,None,228.84496593475342,None,1,1,0.4595160484313965,228.84496593475342,None,,,,,8001,001,10,2021_Nov_04_1531,task-switching-replication,2021.2.3,60.001688051030634,
1,17,experiment,10,sitting,switch,incongruant,dashed,triangle,blue,stimuli/dashed-rectangle.png,stimuli/blue-triangle.png,2,,,,,,,,,,,,,,,,,,,,,,,,,0,0,0,0,0,0,0,0,0,16,16,16,,,,,0,0,0,0,,,,,,,,,,,,,,,,,,,,,,,,,,,,,,,,,,,,,,,,,,,,,,,,,,,,,,,1636058120.9336221,,,,,,,,,,,,231.31508791446686,232.33999586105347,231.3486258983612,None,,,,,,,,,,,,,,,,,,,,,,,,,,,,,,,,,,229.6852948665619,None,230.67317295074463,None,1,0,0.5372989177703857,230.67317295074463,None,,,,,8001,001,10,2021_Nov_04_1531,task-switching-replication,2021.2.3,60.001688051030634,
1,17,experiment,10,sitting,switch,incongruant,dashed,triangle,blue,stimuli/dashed-rectangle.png,stimuli/blue-triangle.png,2,,,,,,,,,,,,,,,,,,,,,,,,,0,0,0,0,0,0,0,0,0,16,16,16,,,,,,,,,,,,,,,,,,,,,,,,,,,,,,,,,,,,,,,,,,,,,,,,,,,,,,,,,,,,,,,,,,,,,,,,,236.36360788345337,None,,,,,,,,,,,,,,,,,,,,,,,,,,,,,,,,,,,,,,,,,,,,,,,,,,,8001,001,10,2021_Nov_04_1531,task-switching-replication,2021.2.3,60.001688051030634,
1,18,experiment,10,sitting,switch,incongruant,solid,triangle,blue,stimuli/solid-rectangle.png,stimuli/blue-triangle.png,1,,,,,,,,,,,,,,,,,,,,,,,,,0,0,0,0,0,0,0,0,0,17,17,17,,,,,,,,,,,,,,,,,,,,,,,,,,,,,,,,,,,,,,,,,,,,,,,,,,,,,,,,,,,,,,,1636058127.9308765,,,,,,,,,,238.3400058746338,None,,,,,,,,,,,,,,,,,,,,,,,,,,,,,,,,,,,,,,236.56037092208862,None,237.54804396629333,None,1,1,0.6434240341186523,237.54804396629333,None,,,,,8001,001,10,2021_Nov_04_1531,task-switching-replication,2021.2.3,60.001688051030634,
1,19,experiment,10,sitting,noswitch,incongruant,solid,square,yellow,stimuli/solid-rectangle.png,stimuli/yellow-square.png,2,,,,,,,,,,,,,,,,,,,,,,,,,0,0,0,0,0,0,0,0,0,18,18,18,,,,,,,,,,,,,,,,,,,,,,,,,,,,,,,,,,,,,,,,,,,,,,,,,,,,,,,,,,,,,,,1636058130.2919645,,,,,,,,,,240.7628607749939,None,,,,,,,,,,,,,,,,,,,,,,,,,,,,,,,,,,,,,,238.56930088996887,None,239.55707097053528,None,2,1,0.9907810688018799,239.55707097053528,None,,,,,8001,001,10,2021_Nov_04_1531,task-switching-replication,2021.2.3,60.001688051030634,
1,20,experiment,10,sitting,switch,congruant,dashed,triangle,blue,stimuli/dashed-rectangle.png,stimuli/blue-triangle.png,2,,,,,,,,,,,,,,,,,,,,,,,,,0,0,0,0,0,0,0,0,0,19,19,19,,,,,,,,,,,,,,,,,,,,,,,,,,,,,,,,,,,,,,,,,,,,,,,,,,,,,,,,,,,,,,,1636058132.354275,,,,,,,,,,242.76423382759094,None,,,,,,,,,,,,,,,,,,,,,,,,,,,,,,,,,,,,,,240.92779684066772,None,241.91621088981628,None,2,1,0.7344720363616943,241.91621088981628,None,,,,,8001,001,10,2021_Nov_04_1531,task-switching-replication,2021.2.3,60.001688051030634,
1,21,experiment,10,sitting,switch,incongruant,solid,square,blue,stimuli/solid-rectangle.png,stimuli/blue-square.png,1,,,,,,,,,,,,,,,,,,,,,,,,,0,0,0,0,0,0,0,0,0,20,20,20,,,,,,,,,,,,,,,,,,,,,,,,,,,,,,,,,,,,,,,,,,,,,,,,,,,,,,,,,,,,,,,1636058134.3636005,,,,,,,,,,244.7727689743042,None,,,,,,,,,,,,,,,,,,,,,,,,,,,,,,,,,,,,,,242.99341678619385,None,243.98098182678223,None,1,1,0.653555154800415,243.98098182678223,None,,,,,8001,001,10,2021_Nov_04_1531,task-switching-replication,2021.2.3,60.001688051030634,
1,22,experiment,10,sitting,noswitch,congruant,solid,triangle,blue,stimuli/solid-rectangle.png,stimuli/blue-triangle.png,1,,,,,,,,,,,,,,,,,,,,,,,,,0,0,0,0,0,0,0,0,0,21,21,21,0,0,0,0,,,,,,,,,,,,,,,,,,,,,,,,,,,,,,,,,,,,,,,,,,,,,,,,,,,,,,,,,,,1636058136.6703608,,,,,,,,,,,,,,,,,,,,,,,,,,,,,,,,,,,,,,,,,,,,,,,,,245.0022897720337,None,245.9908049106598,None,2,0,0.9549601078033447,245.9908049106598,None,247.05187594890594,248.07261681556702,247.08450078964233,None,8001,001,10,2021_Nov_04_1531,task-switching-replication,2021.2.3,60.001688051030634,
1,22,experiment,10,sitting,noswitch,congruant,solid,triangle,blue,stimuli/solid-rectangle.png,stimuli/blue-triangle.png,1,,,,,,,,,,,,,,,,,,,,,,,,,0,0,0,0,0,0,0,0,0,21,21,21,,,,,,,,,,,,,,,,,,,,,,,,,,,,,,,,,,,,,,,,,,,,,,,,,,,,,,,,,,,,,,,,,,,,,,,,,252.09394097328186,None,,,,,,,,,,,,,,,,,,,,,,,,,,,,,,,,,,,,,,,,,,,,,,,,,,,8001,001,10,2021_Nov_04_1531,task-switching-replication,2021.2.3,60.001688051030634,
1,23,experiment,10,sitting,switch,incongruant,dashed,triangle,yellow,stimuli/dashed-rectangle.png,stimuli/yellow-triangle.png,2,,,,,,,,,,,,,,,,,,,,,,,,,0,0,0,0,0,0,0,0,0,22,22,22,,,,,,,,,,,,,,,,,,,,,,,,,,,,,,,,,,,,,,,,,,,,,,,,,,,,,,,,,,,,,,,1636058143.954221,,,,,,,,,,254.36415886878967,None,,,,,,,,,,,,,,,,,,,,,,,,,,,,,,,,,,,,,,252.29088687896729,None,253.27959489822388,None,2,1,0.9759039878845215,253.27959489822388,None,,,,,8001,001,10,2021_Nov_04_1531,task-switching-replication,2021.2.3,60.001688051030634,
1,24,experiment,10,sitting,switch,congruant,solid,triangle,yellow,stimuli/solid-rectangle.png,stimuli/yellow-triangle.png,2,,,,,,,,,,,,,,,,,,,,,,,,,0,0,0,0,0,0,0,0,0,23,23,23,,,,,,,,,,,,,,,,,,,,,,,,,,,,,,,,,,,,,,,,,,,,,,,,,,,,,,,,,,,,,,,1636058145.6643012,,,,,,,,,,256.074257850647,None,,,,,,,,,,,,,,,,,,,,,,,,,,,,,,,,,,,,,,254.5932970046997,None,255.58157396316528,None,2,1,0.39504003524780273,255.58157396316528,None,,,,,8001,001,10,2021_Nov_04_1531,task-switching-replication,2021.2.3,60.001688051030634,
1,25,experiment,10,sitting,noswitch,incongruant,solid,triangle,blue,stimuli/solid-rectangle.png,stimuli/blue-triangle.png,1,,,,,,,,,,,,,,,,,,,,,,,,,0,0,0,0,0,0,0,0,0,24,24,24,,,,,,,,,,,,,,,,,,,,,,,,,,,,,,,,,,,,,,,,,,,,,,,,,,,,,,,,,,,,,,,1636058147.4347038,,,,,,,,,,257.84387278556824,None,,,,,,,,,,,,,,,,,,,,,,,,,,,,,,,,,,,,,,256.3032908439636,None,257.2907519340515,None,1,1,0.3996269702911377,257.2907519340515,None,,,,,8001,001,10,2021_Nov_04_1531,task-switching-replication,2021.2.3,60.001688051030634,
1,26,experiment,10,sitting,switch,incongruant,dashed,triangle,yellow,stimuli/dashed-rectangle.png,stimuli/yellow-triangle.png,2,,,,,,,,,,,,,,,,,,,,,,,,,0,0,0,0,0,0,0,0,0,25,25,25,,,,,,,,,,,,,,,,,,,,,,,,,,,,,,,,,,,,,,,,,,,,,,,,,,,,,,,,,,,,,,,1636058149.2649844,,,,,,,,,,259.6741008758545,None,,,,,,,,,,,,,,,,,,,,,,,,,,,,,,,,,,,,,,258.07298278808594,None,259.0604348182678,None,2,1,0.47487497329711914,259.0604348182678,None,,,,,8001,001,10,2021_Nov_04_1531,task-switching-replication,2021.2.3,60.001688051030634,
1,27,experiment,10,sitting,noswitch,congruant,dashed,triangle,yellow,stimuli/dashed-rectangle.png,stimuli/yellow-triangle.png,2,,,,,,,,,,,,,,,,,,,,,,,,,0,0,0,0,0,0,0,0,0,26,26,26,,,,,,,,,,,,,,,,,,,,,,,,,,,,,,,,,,,,,,,,,,,,,,,,,,,,,,,,,,,,,,,1636058150.9149883,,,,,,,,,,261.32485580444336,None,,,,,,,,,,,,,,,,,,,,,,,,,,,,,,,,,,,,,,259.90315079689026,None,260.8911759853363,None,2,1,0.30137085914611816,260.8911759853363,None,,,,,8001,001,10,2021_Nov_04_1531,task-switching-replication,2021.2.3,60.001688051030634,
1,28,experiment,10,sitting,noswitch,congruant,dashed,triangle,yellow,stimuli/dashed-rectangle.png,stimuli/yellow-triangle.png,2,,,,,,,,,,,,,,,,,,,,,,,,,0,0,0,0,0,0,0,0,0,27,27,27,,,,,,,,,,,,,,,,,,,,,,,,,,,,,,,,,,,,,,,,,,,,,,,,,,,,,,,,,,,,,,,1636058152.624465,,,,,,,,,,263.0344967842102,None,,,,,,,,,,,,,,,,,,,,,,,,,,,,,,,,,,,,,,261.5539028644562,None,262.5415349006653,None,2,1,0.3659639358520508,262.5415349006653,None,,,,,8001,001,10,2021_Nov_04_1531,task-switching-replication,2021.2.3,60.001688051030634,
1,29,experiment,10,sitting,switch,incongruant,solid,square,blue,stimuli/solid-rectangle.png,stimuli/blue-square.png,1,,,,,,,,,,,,,,,,,,,,,,,,,0,0,0,0,0,0,0,0,0,28,28,28,,,,,,,,,,,,,,,,,,,,,,,,,,,,,,,,,,,,,,,,,,,,,,,,,,,,,,,,,,,,,,,1636058154.4539135,,,,,,,,,,264.86299085617065,None,,,,,,,,,,,,,,,,,,,,,,,,,,,,,,,,,,,,,,263.263552904129,None,264.25167083740234,None,1,1,0.48772406578063965,264.25167083740234,None,,,,,8001,001,10,2021_Nov_04_1531,task-switching-replication,2021.2.3,60.001688051030634,
1,30,experiment,10,sitting,noswitch,incongruant,solid,square,yellow,stimuli/solid-rectangle.png,stimuli/yellow-square.png,2,,,,,,,,,,,,,,,,,,,,,,,,,0,0,0,0,0,0,0,0,0,29,29,29,0,0,0,0,,,,,,,,,,,,,,,,,,,,,,,,,,,,,,,,,,,,,,,,,,,,,,,,,,,,,,,,,,,1636058156.4002163,,,,,,,,,,,,,,,,,,,,,,,,,,,,,,,,,,,,,,,,,,,,,,,,,265.0922348499298,None,266.0804989337921,None,1,0,0.617948055267334,266.0804989337921,None,266.7816199064255,267.8035719394684,266.81496381759644,None,8001,001,10,2021_Nov_04_1531,task-switching-replication,2021.2.3,60.001688051030634,
1,30,experiment,10,sitting,noswitch,incongruant,solid,square,yellow,stimuli/solid-rectangle.png,stimuli/yellow-square.png,2,,,,,,,,,,,,,,,,,,,,,,,,,0,0,0,0,0,0,0,0,0,29,29,29,,,,,,,,,,,,,,,,,,,,,,,,,,,,,,,,,,,,,,,,,,,,,,,,,,,,,,,,,,,,,,,,,,,,,,,,,271.82843589782715,None,,,,,,,,,,,,,,,,,,,,,,,,,,,,,,,,,,,,,,,,,,,,,,,,,,,8001,001,10,2021_Nov_04_1531,task-switching-replication,2021.2.3,60.001688051030634,
1,31,experiment,10,sitting,noswitch,incongruant,solid,square,blue,stimuli/solid-rectangle.png,stimuli/blue-square.png,1,,,,,,,,,,,,,,,,,,,,,,,,,0,0,0,0,0,0,0,0,0,30,30,30,,,,,,,,,,,,,,,,,,,,,,,,,,,,,,,,,,,,,,,,,,,,,,,,,,,,,,,,,,,,,,,1636058163.393489,,,,,,,,,,273.8026638031006,None,,,,,,,,,,,,,,,,,,,,,,,,,,,,,,,,,,,,,,272.02559089660645,None,273.0134937763214,None,1,1,0.6507728099822998,273.0134937763214,None,,,,,8001,001,10,2021_Nov_04_1531,task-switching-replication,2021.2.3,60.001688051030634,
1,32,experiment,10,sitting,noswitch,incongruant,solid,square,yellow,stimuli/solid-rectangle.png,stimuli/yellow-square.png,2,,,,,,,,,,,,,,,,,,,,,,,,,0,0,0,0,0,0,0,0,0,31,31,31,,,,,,,,,,,,,,,,,,,,,,,,,,,,,,,,,,,,,,,,,,,,,,,,,,,,,,,,,,,,,,,1636058165.1653574,,,,,,,,,,275.5746657848358,None,,,,,,,,,,,,,,,,,,,,,,,,,,,,,,,,,,,,,,274.032203912735,None,275.0196588039398,None,2,1,0.4307529926300049,275.0196588039398,None,,,,,8001,001,10,2021_Nov_04_1531,task-switching-replication,2021.2.3,60.001688051030634,
1,33,experiment,10,sitting,switch,incongruant,dashed,square,yellow,stimuli/dashed-rectangle.png,stimuli/yellow-square.png,1,,,,,,,,,,,,,,,,,,,,,,,,,0,0,0,0,0,0,0,0,0,32,32,32,,,,,,,,,,,,,,,,,,,,,,,,,,,,,,,,,,,,,,,,,,,,,,,,,,,,,,,,,,,,,,,1636058167.2900786,,,,,,,,,,277.69920778274536,None,,,,,,,,,,,,,,,,,,,,,,,,,,,,,,,,,,,,,,275.8037679195404,None,276.791188955307,None,1,1,0.7593178749084473,276.791188955307,None,,,,,8001,001,10,2021_Nov_04_1531,task-switching-replication,2021.2.3,60.001688051030634,
1,34,experiment,10,sitting,noswitch,congruant,dashed,square,yellow,stimuli/dashed-rectangle.png,stimuli/yellow-square.png,1,,,,,,,,,,,,,,,,,,,,,,,,,0,0,0,0,0,0,0,0,0,33,33,33,,,,,,,,,,,,,,,,,,,,,,,,,,,,,,,,,,,,,,,,,,,,,,,,,,,,,,,,,,,,,,,1636058169.118489,,,,,,,,,,279.52911281585693,None,,,,,,,,,,,,,,,,,,,,,,,,,,,,,,,,,,,,,,277.9286890029907,None,278.91663789749146,None,1,1,0.4597909450531006,278.91663789749146,None,,,,,8001,001,10,2021_Nov_04_1531,task-switching-replication,2021.2.3,60.001688051030634,
1,35,experiment,10,sitting,switch,congruant,solid,square,blue,stimuli/solid-rectangle.png,stimuli/blue-square.png,1,,,,,,,,,,,,,,,,,,,,,,,,,0,0,0,0,0,0,0,0,0,34,34,34,,,,,,,,,,,,,,,,,,,,,,,,,,,,,,,,,,,,,,,,,,,,,,,,,,,,,,,,,,,,,,,1636058171.304661,,,,,,,,,,281.71444392204285,None,,,,,,,,,,,,,,,,,,,,,,,,,,,,,,,,,,,,,,279.75831484794617,None,280.7475609779358,None,1,1,0.8368039131164551,280.7475609779358,None,,,,,8001,001,10,2021_Nov_04_1531,task-switching-replication,2021.2.3,60.001688051030634,
1,36,experiment,10,sitting,switch,congruant,dashed,square,blue,stimuli/dashed-rectangle.png,stimuli/blue-square.png,1,,,,,,,,,,,,,,,,,,,,,,,,,0,0,0,0,0,0,0,0,0,35,35,35,,,,,,,,,,,,,,,,,,,,,,,,,,,,,,,,,,,,,,,,,,,,,,,,,,,,,,,,,,,,,,,1636058173.3701801,,,,,,,,,,283.77991795539856,None,,,,,,,,,,,,,,,,,,,,,,,,,,,,,,,,,,,,,,281.9437577724457,None,282.9319589138031,None,1,1,0.7243490219116211,282.9319589138031,None,,,,,8001,001,10,2021_Nov_04_1531,task-switching-replication,2021.2.3,60.001688051030634,
1,37,experiment,10,sitting,noswitch,incongruant,dashed,triangle,blue,stimuli/dashed-rectangle.png,stimuli/blue-triangle.png,2,,,,,,,,,,,,,,,,,,,,,,,,,0,0,0,0,0,0,0,0,0,36,36,36,,,,,,,,,,,,,,,,,,,,,,,,,,,,,,,,,,,,,,,,,,,,,,,,,,,,,,,,,,,,,,,1636058175.0839758,,,,,,,,,,285.49297285079956,None,,,,,,,,,,,,,,,,,,,,,,,,,,,,,,,,,,,,,,284.0093050003052,None,284.997761964798,None,2,1,0.3667168617248535,284.997761964798,None,,,,,8001,001,10,2021_Nov_04_1531,task-switching-replication,2021.2.3,60.001688051030634,
1,38,experiment,10,sitting,noswitch,congruant,dashed,triangle,yellow,stimuli/dashed-rectangle.png,stimuli/yellow-triangle.png,2,,,,,,,,,,,,,,,,,,,,,,,,,0,0,0,0,0,0,0,0,0,37,37,37,,,,,,,,,,,,,,,,,,,,,,,,,,,,,,,,,,,,,,,,,,,,,,,,,,,,,,,,,,,,,,,1636058176.734142,,,,,,,,,,287.144015789032,None,,,,,,,,,,,,,,,,,,,,,,,,,,,,,,,,,,,,,,285.72222685813904,None,286.7104640007019,None,2,1,0.33600616455078125,286.7104640007019,None,,,,,8001,001,10,2021_Nov_04_1531,task-switching-replication,2021.2.3,60.001688051030634,
1,39,experiment,10,sitting,switch,congruant,solid,triangle,yellow,stimuli/solid-rectangle.png,stimuli/yellow-triangle.png,2,,,,,,,,,,,,,,,,,,,,,,,,,0,0,0,0,0,0,0,0,0,38,38,38,,,,,,,,,,,,,,,,,,,,,,,,,,,,,,,,,,,,,,,,,,,,,,,,,,,,,,,,,,,,,,,1636058178.4448748,,,,,,,,,,288.8547217845917,None,,,,,,,,,,,,,,,,,,,,,,,,,,,,,,,,,,,,,,287.37331986427307,None,288.36173486709595,None,2,1,0.3677499294281006,288.36173486709595,None,,,,,8001,001,10,2021_Nov_04_1531,task-switching-replication,2021.2.3,60.001688051030634,
1,40,experiment,10,sitting,noswitch,congruant,solid,triangle,yellow,stimuli/solid-rectangle.png,stimuli/yellow-triangle.png,2,,,,,,,,,,,,,,,,,,,,,,,,,0,0,0,0,0,0,0,0,0,39,39,39,,,,,,,,,,,,,,,,,,,,,,,,,,,,,,,,,,,,,,,,,,,,,,,,,,,,,,,,,,,,,,,1636058180.2143137,,,,,,,,,,290.624009847641,None,,,,,,,,,,,,,,,,,,,,,,,,,,,,,,,,,,,,,,289.0837879180908,None,290.0721538066864,None,2,1,0.3972940444946289,290.0721538066864,None,,,,,8001,001,10,2021_Nov_04_1531,task-switching-replication,2021.2.3,60.001688051030634,
1,41,experiment,10,sitting,switch,congruant,dashed,triangle,blue,stimuli/dashed-rectangle.png,stimuli/blue-triangle.png,2,,,,,,,,,,,,,,,,,,,,,,,,,0,0,0,0,0,0,0,0,0,40,40,40,,,,,,,,,,,,,,,,,,,,,,,,,,,,,,,,,,,,,,,,,,,,,,,,,,,,,,,,,,,,,,,1636058182.278928,,,,,,,,,,292.68888092041016,None,,,,,,,,,,,,,,,,,,,,,,,,,,,,,,,,,,,,,,290.85303592681885,None,291.840931892395,None,2,1,0.7463939189910889,291.840931892395,None,,,,,8001,001,10,2021_Nov_04_1531,task-switching-replication,2021.2.3,60.001688051030634,
1,42,experiment,10,sitting,switch,congruant,solid,square,yellow,stimuli/solid-rectangle.png,stimuli/yellow-square.png,2,,,,,,,,,,,,,,,,,,,,,,,,,0,0,0,0,0,0,0,0,0,41,41,41,,,,,,,,,,,,,,,,,,,,,,,,,,,,,,,,,,,,,,,,,,,,,,,,,,,,,,,,,,,,,,,1636058184.16664,,,,,,,,,,294.5763828754425,None,,,,,,,,,,,,,,,,,,,,,,,,,,,,,,,,,,,,,,292.91818594932556,None,293.9060459136963,None,2,1,0.5352809429168701,293.9060459136963,None,,,,,8001,001,10,2021_Nov_04_1531,task-switching-replication,2021.2.3,60.001688051030634,
1,43,experiment,10,sitting,switch,incongruant,dashed,square,blue,stimuli/dashed-rectangle.png,stimuli/blue-square.png,1,,,,,,,,,,,,,,,,,,,,,,,,,0,0,0,0,0,0,0,0,0,42,42,42,,,,,,,,,,,,,,,,,,,,,,,,,,,,,,,,,,,,,,,,,,,,,,,,,,,,,,,,,,,,,,,1636058185.9958951,,,,,,,,,,296.4053738117218,None,,,,,,,,,,,,,,,,,,,,,,,,,,,,,,,,,,,,,,294.8056318759918,None,295.79409098625183,None,1,1,0.49476099014282227,295.79409098625183,None,,,,,8001,001,10,2021_Nov_04_1531,task-switching-replication,2021.2.3,60.001688051030634,
1,44,experiment,10,sitting,switch,congruant,solid,triangle,blue,stimuli/solid-rectangle.png,stimuli/blue-triangle.png,1,,,,,,,,,,,,,,,,,,,,,,,,,0,0,0,0,0,0,0,0,0,43,43,43,,,,,,,,,,,,,,,,,,,,,,,,,,,,,,,,,,,,,,,,,,,,,,,,,,,,,,,,,,,,,,,1636058188.3580208,,,,,,,,,,298.76799392700195,None,,,,,,,,,,,,,,,,,,,,,,,,,,,,,,,,,,,,,,296.6357247829437,None,297.62360882759094,None,1,1,0.9866440296173096,297.62360882759094,None,,,,,8001,001,10,2021_Nov_04_1531,task-switching-replication,2021.2.3,60.001688051030634,
1,45,experiment,10,sitting,switch,congruant,dashed,square,blue,stimuli/dashed-rectangle.png,stimuli/blue-square.png,1,,,,,,,,,,,,,,,,,,,,,,,,,0,0,0,0,0,0,0,0,0,44,44,44,,,,,,,,,,,,,,,,,,,,,,,,,,,,,,,,,,,,,,,,,,,,,,,,,,,,,,,,,,,,,,,1636058190.363601,,,,,,,,,,300.77350878715515,None,,,,,,,,,,,,,,,,,,,,,,,,,,,,,,,,,,,,,,298.9969038963318,None,299.9844899177551,None,1,1,0.6836838722229004,299.9844899177551,None,,,,,8001,001,10,2021_Nov_04_1531,task-switching-replication,2021.2.3,60.001688051030634,
1,46,experiment,10,sitting,switch,incongruant,solid,square,yellow,stimuli/solid-rectangle.png,stimuli/yellow-square.png,2,,,,,,,,,,,,,,,,,,,,,,,,,0,0,0,0,0,0,0,0,0,45,45,45,,,,,,,,,,,,,,,,,,,,,,,,,,,,,,,,,,,,,,,,,,,,,,,,,,,,,,,,,,,,,,,1636058192.1956668,,,,,,,,,,302.60502099990845,None,,,,,,,,,,,,,,,,,,,,,,,,,,,,,,,,,,,,,,301.0028898715973,None,301.9910168647766,None,2,1,0.46058106422424316,301.9910168647766,None,,,,,8001,001,10,2021_Nov_04_1531,task-switching-replication,2021.2.3,60.001688051030634,
1,47,experiment,10,sitting,switch,incongruant,dashed,square,yellow,stimuli/dashed-rectangle.png,stimuli/yellow-square.png,1,,,,,,,,,,,,,,,,,,,,,,,,,0,0,0,0,0,0,0,0,0,46,46,46,,,,,,,,,,,,,,,,,,,,,,,,,,,,,,,,,,,,,,,,,,,,,,,,,,,,,,,,,,,,,,,1636058194.263773,,,,,,,,,,304.6729338169098,None,,,,,,,,,,,,,,,,,,,,,,,,,,,,,,,,,,,,,,302.8343529701233,None,303.8226549625397,None,1,1,0.6917049884796143,303.8226549625397,None,,,,,8001,001,10,2021_Nov_04_1531,task-switching-replication,2021.2.3,60.001688051030634,
1,48,experiment,10,sitting,noswitch,congruant,dashed,square,yellow,stimuli/dashed-rectangle.png,stimuli/yellow-square.png,1,,,,,,,,,,,,,,,,,,,,,,,,,0,0,0,0,0,0,0,0,0,47,47,47,,,,,,,,,,,,,,,,,,,,,,,,,,,,,,,,,,,,,,,,,,,,,,,,,,,,,,,,,,,,,,,1636058196.2702885,,,,,,,,,,306.6799578666687,None,,,,,,,,,,,,,,,,,,,,,,,,,,,,,,,,,,,,,,304.90218591690063,None,305.8906888961792,None,1,1,0.6544680595397949,305.8906888961792,None,,,,,8001,001,10,2021_Nov_04_1531,task-switching-replication,2021.2.3,60.001688051030634,
1,49,experiment,10,sitting,switch,congruant,solid,triangle,blue,stimuli/solid-rectangle.png,stimuli/blue-triangle.png,1,,,,,,,,,,,,,,,,,,,,,,,,,0,0,0,0,0,0,0,0,0,48,48,48,,,,,,,,,,,,,,,,,,,,,,,,,,,,,,,,,,,,,,,,,,,,,,,,,,,,,,,,,,,,,,,1636058198.2763236,,,,,,,,,,308.6860809326172,None,,,,,,,,,,,,,,,,,,,,,,,,,,,,,,,,,,,,,,306.9093749523163,None,307.89717078208923,None,1,1,0.6551079750061035,307.89717078208923,None,,,,,8001,001,10,2021_Nov_04_1531,task-switching-replication,2021.2.3,60.001688051030634,
,,,10,,,,,,,,,,,,,,,,,,,,,,,,,,,,,,,,,,0,0,0,0,0,0,0,0,,,,,,,,,,,,,,,,,,,,,,,,,,,,,,,,,,,,,,,,,,,,,,,,,,,,,,,,,,,,,,,,,,,,,,,,,,,,,,,,,,,,,,,,,,,,,,,,,,,,,,,,,,,,,,,,,,,,,,,,,,,,,,,,,8001,001,10,2021_Nov_04_1531,task-switching-replication,2021.2.3,60.001688051030634,
2,1,experiment,10,sitting,buffer,buffer,dashed,square,blue,stimuli/dashed-rectangle.png,stimuli/blue-square.png,1,,,,,,,,,,,,,,,,,,,,,,,,,0,0,0,0,1,0,1,0,0,0,0,0,,,,,,,,,,,,,,,,,,,,,,,,,,,,,,,,,,,,,,,,,,,,,,,,,,,,,,,,,,,,,,,1636058205.5574524,,,,,,,,,,315.9670178890228,None,,,,,,,,,,,,,,,,,,,,,,,,,,308.91600799560547,None,2,3.3263909816741943,308.91600799560547,None,312.32863092422485,None,2,1.8376059532165527,312.32863092422485,None,314.30544090270996,None,315.2937309741974,None,1,1,0.5192549228668213,315.2937309741974,None,,,,,8001,001,10,2021_Nov_04_1531,task-switching-replication,2021.2.3,60.001688051030634,
2,2,experiment,10,sitting,switch,congruant,solid,triangle,blue,stimuli/solid-rectangle.png,stimuli/blue-triangle.png,1,,,,,,,,,,,,,,,,,,,,,,,,,0,0,0,0,1,0,1,0,0,1,1,1,,,,,,,,,,,,,,,,,,,,,,,,,,,,,,,,,,,,,,,,,,,,,,,,,,,,,,,,,,,,,,,1636058207.740784,,,,,,,,,,318.1506369113922,None,,,,,,,,,,,,,,,,,,,,,,,,,,,,,,,,,,,,,,316.19632291793823,None,317.18424677848816,None,1,1,0.8179149627685547,317.18424677848816,None,,,,,8001,001,10,2021_Nov_04_1531,task-switching-replication,2021.2.3,60.001688051030634,
2,3,experiment,10,sitting,switch,congruant,dashed,square,yellow,stimuli/dashed-rectangle.png,stimuli/yellow-square.png,1,,,,,,,,,,,,,,,,,,,,,,,,,0,0,0,0,1,0,1,0,0,2,2,2,,,,,,,,,,,,,,,,,,,,,,,,,,,,,,,,,,,,,,,,,,,,,,,,,,,,,,,,,,,,,,,1636058209.687098,,,,,,,,,,320.09684586524963,None,,,,,,,,,,,,,,,,,,,,,,,,,,,,,,,,,,,,,,318.3796968460083,None,319.3674359321594,None,1,1,0.5775949954986572,319.3674359321594,None,,,,,8001,001,10,2021_Nov_04_1531,task-switching-replication,2021.2.3,60.001688051030634,
2,4,experiment,10,sitting,switch,congruant,solid,square,blue,stimuli/solid-rectangle.png,stimuli/blue-square.png,1,,,,,,,,,,,,,,,,,,,,,,,,,0,0,0,0,1,0,1,0,0,3,3,3,,,,,,,,,,,,,,,,,,,,,,,,,,,,,,,,,,,,,,,,,,,,,,,,,,,,,,,,,,,,,,,1636058211.5741904,,,,,,,,,,321.9840519428253,None,,,,,,,,,,,,,,,,,,,,,,,,,,,,,,,,,,,,,,320.3259618282318,None,321.3139109611511,None,1,1,0.5362668037414551,321.3139109611511,None,,,,,8001,001,10,2021_Nov_04_1531,task-switching-replication,2021.2.3,60.001688051030634,
2,5,experiment,10,sitting,noswitch,incongruant,solid,triangle,yellow,stimuli/solid-rectangle.png,stimuli/yellow-triangle.png,2,,,,,,,,,,,,,,,,,,,,,,,,,0,0,0,0,1,0,1,0,0,4,4,4,,,,,,,,,,,,,,,,,,,,,,,,,,,,,,,,,,,,,,,,,,,,,,,,,,,,,,,,,,,,,,,1636058213.5842898,,,,,,,,,,323.9933979511261,None,,,,,,,,,,,,,,,,,,,,,,,,,,,,,,,,,,,,,,322.2128858566284,None,323.20053791999817,None,2,1,0.6695029735565186,323.20053791999817,None,,,,,8001,001,10,2021_Nov_04_1531,task-switching-replication,2021.2.3,60.001688051030634,
2,6,experiment,10,sitting,noswitch,congruant,solid,triangle,yellow,stimuli/solid-rectangle.png,stimuli/yellow-triangle.png,2,,,,,,,,,,,,,,,,,,,,,,,,,0,0,0,0,1,0,1,0,0,5,5,5,,,,,,,,,,,,,,,,,,,,,,,,,,,,,,,,,,,,,,,,,,,,,,,,,,,,,,,,,,,,,,,1636058215.4118326,,,,,,,,,,325.8216609954834,None,,,,,,,,,,,,,,,,,,,,,,,,,,,,,,,,,,,,,,324.22234082221985,None,325.2103238105774,None,2,1,0.4638481140136719,325.2103238105774,None,,,,,8001,001,10,2021_Nov_04_1531,task-switching-replication,2021.2.3,60.001688051030634,
2,7,experiment,10,sitting,noswitch,congruant,solid,square,yellow,stimuli/solid-rectangle.png,stimuli/yellow-square.png,2,,,,,,,,,,,,,,,,,,,,,,,,,0,0,0,0,1,0,1,0,0,6,6,6,,,,,,,,,,,,,,,,,,,,,,,,,,,,,,,,,,,,,,,,,,,,,,,,,,,,,,,,,,,,,,,1636058217.5951462,,,,,,,,,,328.00485587120056,None,,,,,,,,,,,,,,,,,,,,,,,,,,,,,,,,,,,,,,326.0506989955902,None,327.03843688964844,None,2,1,0.8446941375732422,327.03843688964844,None,,,,,8001,001,10,2021_Nov_04_1531,task-switching-replication,2021.2.3,60.001688051030634,
2,8,experiment,10,sitting,switch,congruant,dashed,triangle,blue,stimuli/dashed-rectangle.png,stimuli/blue-triangle.png,2,,,,,,,,,,,,,,,,,,,,,,,,,0,0,0,0,1,0,1,0,0,7,7,7,,,,,0,0,0,0,,,,,,,,,,,,,,,,,,,,,,,,,,,,,,,,,,,,,,,,,,,,,,,,,,,,,,,1636058219.959505,,,,,,,,,,,,330.3410598039627,331.3661389350891,330.3741137981415,None,,,,,,,,,,,,,,,,,,,,,,,,,,,,,,,,,,328.2339859008789,None,329.2217538356781,None,1,0,0.9982891082763672,329.2217538356781,None,,,,,8001,001,10,2021_Nov_04_1531,task-switching-replication,2021.2.3,60.001688051030634,
2,8,experiment,10,sitting,switch,congruant,dashed,triangle,blue,stimuli/dashed-rectangle.png,stimuli/blue-triangle.png,2,,,,,,,,,,,,,,,,,,,,,,,,,0,0,0,0,1,0,1,0,0,7,7,7,,,,,,,,,,,,,,,,,,,,,,,,,,,,,,,,,,,,,,,,,,,,,,,,,,,,,,,,,,,,,,,,,,,,,,,,,335.388386964798,None,,,,,,,,,,,,,,,,,,,,,,,,,,,,,,,,,,,,,,,,,,,,,,,,,,,8001,001,10,2021_Nov_04_1531,task-switching-replication,2021.2.3,60.001688051030634,
2,9,experiment,10,sitting,noswitch,congruant,dashed,triangle,blue,stimuli/dashed-rectangle.png,stimuli/blue-triangle.png,2,,,,,,,,,,,,,,,,,,,,,,,,,0,0,0,0,1,0,1,0,0,8,8,8,,,,,0,0,0,0,,,,,,,,,,,,,,,,,,,,,,,,,,,,,,,,,,,,,,,,,,,,,,,,,,,,,,,1636058227.1902099,,,,,,,,,,,,337.5717498064041,338.59657096862793,337.60450077056885,None,,,,,,,,,,,,,,,,,,,,,,,,,,,,,,,,,,335.5849099159241,None,336.57249879837036,None,1,0,0.892646074295044,336.57249879837036,None,,,,,8001,001,10,2021_Nov_04_1531,task-switching-replication,2021.2.3,60.001688051030634,
2,9,experiment,10,sitting,noswitch,congruant,dashed,triangle,blue,stimuli/dashed-rectangle.png,stimuli/blue-triangle.png,2,,,,,,,,,,,,,,,,,,,,,,,,,0,0,0,0,1,0,1,0,0,8,8,8,,,,,,,,,,,,,,,,,,,,,,,,,,,,,,,,,,,,,,,,,,,,,,,,,,,,,,,,,,,,,,,,,,,,,,,,,342.6182448863983,None,,,,,,,,,,,,,,,,,,,,,,,,,,,,,,,,,,,,,,,,,,,,,,,,,,,8001,001,10,2021_Nov_04_1531,task-switching-replication,2021.2.3,60.001688051030634,
2,10,experiment,10,sitting,noswitch,incongruant,dashed,square,yellow,stimuli/dashed-rectangle.png,stimuli/yellow-square.png,1,,,,,,,,,,,,,,,,,,,,,,,,,0,0,0,0,1,0,1,0,0,9,9,9,,,,,,,,,,,,,,,,,,,,,,,,,,,,,,,,,,,,,,,,,,,,,,,,,,,,,,,,,,,,,,,1636058233.9453504,,,,,,,,,,344.35475277900696,None,,,,,,,,,,,,,,,,,,,,,,,,,,,,,,,,,,,,,,342.8152358531952,None,343.8035328388214,None,1,1,0.44426512718200684,343.8035328388214,None,,,,,8001,001,10,2021_Nov_04_1531,task-switching-replication,2021.2.3,60.001688051030634,
2,11,experiment,10,sitting,noswitch,congruant,dashed,square,blue,stimuli/dashed-rectangle.png,stimuli/blue-square.png,1,,,,,,,,,,,,,,,,,,,,,,,,,0,0,0,0,1,0,1,0,0,10,10,10,,,,,,,,,,,,,,,,,,,,,,,,,,,,,,,,,,,,,,,,,,,,,,,,,,,,,,,,,,,,,,,1636058235.8928826,,,,,,,,,,346.30274987220764,None,,,,,,,,,,,,,,,,,,,,,,,,,,,,,,,,,,,,,,344.5843780040741,None,345.5731439590454,None,1,1,0.5778119564056396,345.5731439590454,None,,,,,8001,001,10,2021_Nov_04_1531,task-switching-replication,2021.2.3,60.001688051030634,
2,12,experiment,10,sitting,switch,congruant,solid,square,blue,stimuli/solid-rectangle.png,stimuli/blue-square.png,1,,,,,,,,,,,,,,,,,,,,,,,,,0,0,0,0,1,0,1,0,0,11,11,11,,,,,,,,,,,,,,,,,,,,,,,,,,,,,,,,,,,,,,,,,,,,,,,,,,,,,,,,,,,,,,,1636058237.8405466,,,,,,,,,,348.2503378391266,None,,,,,,,,,,,,,,,,,,,,,,,,,,,,,,,,,,,,,,346.5318458080292,None,347.5206699371338,None,1,1,0.5732300281524658,347.5206699371338,None,,,,,8001,001,10,2021_Nov_04_1531,task-switching-replication,2021.2.3,60.001688051030634,
2,13,experiment,10,sitting,switch,congruant,dashed,square,yellow,stimuli/dashed-rectangle.png,stimuli/yellow-square.png,1,,,,,,,,,,,,,,,,,,,,,,,,,0,0,0,0,1,0,1,0,0,12,12,12,,,,,,,,,,,,,,,,,,,,,,,,,,,,,,,,,,,,,,,,,,,,,,,,,,,,,,,,,,,,,,,1636058240.2019906,,,,,,,,,,350.6118929386139,None,,,,,,,,,,,,,,,,,,,,,,,,,,,,,,,,,,,,,,348.4795548915863,None,349.4678108692169,None,1,1,1.043126106262207,349.4678108692169,None,,,,,8001,001,10,2021_Nov_04_1531,task-switching-replication,2021.2.3,60.001688051030634,
2,14,experiment,10,sitting,switch,incongruant,solid,square,yellow,stimuli/solid-rectangle.png,stimuli/yellow-square.png,2,,,,,,,,,,,,,,,,,,,,,,,,,0,0,0,0,1,0,1,0,0,13,13,13,0,0,0,0,,,,,,,,,,,,,,,,,,,,,,,,,,,,,,,,,,,,,,,,,,,,,,,,,,,,,,,,,,,1636058242.2674363,,,,,,,,,,,,,,,,,,,,,,,,,,,,,,,,,,,,,,,,,,,,,,,,,350.8410828113556,None,351.82914686203003,None,1,0,0.6917321681976318,351.82914686203003,None,352.64888298511505,353.6763207912445,352.682110786438,None,8001,001,10,2021_Nov_04_1531,task-switching-replication,2021.2.3,60.001688051030634,
2,14,experiment,10,sitting,switch,incongruant,solid,square,yellow,stimuli/solid-rectangle.png,stimuli/yellow-square.png,2,,,,,,,,,,,,,,,,,,,,,,,,,0,0,0,0,1,0,1,0,0,13,13,13,,,,,,,,,,,,,,,,,,,,,,,,,,,,,,,,,,,,,,,,,,,,,,,,,,,,,,,,,,,,,,,,,,,,,,,,,357.6988859176636,None,,,,,,,,,,,,,,,,,,,,,,,,,,,,,,,,,,,,,,,,,,,,,,,,,,,8001,001,10,2021_Nov_04_1531,task-switching-replication,2021.2.3,60.001688051030634,
2,15,experiment,10,sitting,switch,congruant,dashed,triangle,blue,stimuli/dashed-rectangle.png,stimuli/blue-triangle.png,2,,,,,,,,,,,,,,,,,,,,,,,,,0,0,0,0,1,0,1,0,0,14,14,14,,,,,0,0,0,0,,,,,,,,,,,,,,,,,,,,,,,,,,,,,,,,,,,,,,,,,,,,,,,,,,,,,,,1636058249.7950866,,,,,,,,,,,,360.1765719652176,361.2029459476471,360.2097518444061,None,,,,,,,,,,,,,,,,,,,,,,,,,,,,,,,,,,357.89564990997314,None,358.88354897499084,None,1,0,1.212981939315796,358.88354897499084,None,,,,,8001,001,10,2021_Nov_04_1531,task-switching-replication,2021.2.3,60.001688051030634,
2,15,experiment,10,sitting,switch,congruant,dashed,triangle,blue,stimuli/dashed-rectangle.png,stimuli/blue-triangle.png,2,,,,,,,,,,,,,,,,,,,,,,,,,0,0,0,0,1,0,1,0,0,14,14,14,,,,,,,,,,,,,,,,,,,,,,,,,,,,,,,,,,,,,,,,,,,,,,,,,,,,,,,,,,,,,,,,,,,,,,,,,365.22573685646057,None,,,,,,,,,,,,,,,,,,,,,,,,,,,,,,,,,,,,,,,,,,,,,,,,,,,8001,001,10,2021_Nov_04_1531,task-switching-replication,2021.2.3,60.001688051030634,
2,16,experiment,10,sitting,switch,congruant,solid,triangle,yellow,stimuli/solid-rectangle.png,stimuli/yellow-triangle.png,2,,,,,,,,,,,,,,,,,,,,,,,,,0,0,0,0,1,0,1,0,0,15,15,15,,,,,,,,,,,,,,,,,,,,,,,,,,,,,,,,,,,,,,,,,,,,,,,,,,,,,,,,,,,,,,,1636058257.025441,,,,,,,,,,367.43529200553894,None,,,,,,,,,,,,,,,,,,,,,,,,,,,,,,,,,,,,,,365.42247581481934,None,366.4100139141083,None,2,1,0.8830468654632568,366.4100139141083,None,,,,,8001,001,10,2021_Nov_04_1531,task-switching-replication,2021.2.3,60.001688051030634,
2,17,experiment,10,sitting,switch,congruant,dashed,triangle,yellow,stimuli/dashed-rectangle.png,stimuli/yellow-triangle.png,2,,,,,,,,,,,,,,,,,,,,,,,,,0,0,0,0,1,0,1,0,0,16,16,16,,,,,,,,,,,,,,,,,,,,,,,,,,,,,,,,,,,,,,,,,,,,,,,,,,,,,,,,,,,,,,,1636058258.8532858,,,,,,,,,,369.26310181617737,None,,,,,,,,,,,,,,,,,,,,,,,,,,,,,,,,,,,,,,367.66426181793213,None,368.6520447731018,None,2,1,0.5130269527435303,368.6520447731018,None,,,,,8001,001,10,2021_Nov_04_1531,task-switching-replication,2021.2.3,60.001688051030634,
2,18,experiment,10,sitting,noswitch,incongruant,dashed,square,blue,stimuli/dashed-rectangle.png,stimuli/blue-square.png,1,,,,,,,,,,,,,,,,,,,,,,,,,0,0,0,0,1,0,1,0,0,17,17,17,,,,,,,,,,,,,,,,,,,,,,,,,,,,,,,,,,,,,,,,,,,,,,,,,,,,,,,,,,,,,,,1636058260.9795089,,,,,,,,,,371.3886749744415,None,,,,,,,,,,,,,,,,,,,,,,,,,,,,,,,,,,,,,,369.49233388900757,None,370.480810880661,None,1,1,0.7639811038970947,370.480810880661,None,,,,,8001,001,10,2021_Nov_04_1531,task-switching-replication,2021.2.3,60.001688051030634,
2,19,experiment,10,sitting,noswitch,incongruant,dashed,triangle,yellow,stimuli/dashed-rectangle.png,stimuli/yellow-triangle.png,2,,,,,,,,,,,,,,,,,,,,,,,,,0,0,0,0,1,0,1,0,0,18,18,18,,,,,,,,,,,,,,,,,,,,,,,,,,,,,,,,,,,,,,,,,,,,,,,,,,,,,,,,,,,,,,,1636058263.1645539,,,,,,,,,,373.5735318660736,None,,,,,,,,,,,,,,,,,,,,,,,,,,,,,,,,,,,,,,371.6179897785187,None,372.60644578933716,None,2,1,0.8284389972686768,372.60644578933716,None,,,,,8001,001,10,2021_Nov_04_1531,task-switching-replication,2021.2.3,60.001688051030634,
2,20,experiment,10,sitting,noswitch,incongruant,dashed,square,blue,stimuli/dashed-rectangle.png,stimuli/blue-square.png,1,,,,,,,,,,,,,,,,,,,,,,,,,0,0,0,0,1,0,1,0,0,19,19,19,,,,,,,,,,,,,,,,,,,,,,,,,,,,,,,,,,,,,,,,,,,,,,,,,,,,,,,,,,,,,,,1636058264.9324734,,,,,,,,,,375.34227180480957,None,,,,,,,,,,,,,,,,,,,,,,,,,,,,,,,,,,,,,,373.8029668331146,None,374.79063296318054,None,1,1,0.4503209590911865,374.79063296318054,None,,,,,8001,001,10,2021_Nov_04_1531,task-switching-replication,2021.2.3,60.001688051030634,
2,21,experiment,10,sitting,switch,incongruant,solid,square,yellow,stimuli/solid-rectangle.png,stimuli/yellow-square.png,2,,,,,,,,,,,,,,,,,,,,,,,,,0,0,0,0,1,0,1,0,0,20,20,20,0,0,0,0,,,,,,,,,,,,,,,,,,,,,,,,,,,,,,,,,,,,,,,,,,,,,,,,,,,,,,,,,,,1636058267.057507,,,,,,,,,,,,,,,,,,,,,,,,,,,,,,,,,,,,,,,,,,,,,,,,,375.571683883667,None,376.55987882614136,None,1,0,0.7560441493988037,376.55987882614136,None,377.43894279003143,378.4663989543915,377.4721930027008,None,8001,001,10,2021_Nov_04_1531,task-switching-replication,2021.2.3,60.001688051030634,
2,21,experiment,10,sitting,switch,incongruant,solid,square,yellow,stimuli/solid-rectangle.png,stimuli/yellow-square.png,2,,,,,,,,,,,,,,,,,,,,,,,,,0,0,0,0,1,0,1,0,0,20,20,20,,,,,,,,,,,,,,,,,,,,,,,,,,,,,,,,,,,,,,,,,,,,,,,,,,,,,,,,,,,,,,,,,,,,,,,,,382.48798394203186,None,,,,,,,,,,,,,,,,,,,,,,,,,,,,,,,,,,,,,,,,,,,,,,,,,,,8001,001,10,2021_Nov_04_1531,task-switching-replication,2021.2.3,60.001688051030634,
2,22,experiment,10,sitting,noswitch,incongruant,solid,triangle,blue,stimuli/solid-rectangle.png,stimuli/blue-triangle.png,1,,,,,,,,,,,,,,,,,,,,,,,,,0,0,0,0,1,0,1,0,0,21,21,21,,,,,,,,,,,,,,,,,,,,,,,,,,,,,,,,,,,,,,,,,,,,,,,,,,,,,,,,,,,,,,,1636058274.2889955,,,,,,,,,,384.69874691963196,None,,,,,,,,,,,,,,,,,,,,,,,,,,,,,,,,,,,,,,382.684809923172,None,383.6734049320221,None,1,1,0.916140079498291,383.6734049320221,None,,,,,8001,001,10,2021_Nov_04_1531,task-switching-replication,2021.2.3,60.001688051030634,
2,23,experiment,10,sitting,noswitch,incongruant,solid,square,yellow,stimuli/solid-rectangle.png,stimuli/yellow-square.png,2,,,,,,,,,,,,,,,,,,,,,,,,,0,0,0,0,1,0,1,0,0,22,22,22,,,,,,,,,,,,,,,,,,,,,,,,,,,,,,,,,,,,,,,,,,,,,,,,,,,,,,,,,,,,,,,1636058277.0073879,,,,,,,,,,387.4164979457855,None,,,,,,,,,,,,,,,,,,,,,,,,,,,,,,,,,,,,,,384.9279158115387,None,385.91528582572937,None,2,1,1.3478031158447266,385.91528582572937,None,,,,,8001,001,10,2021_Nov_04_1531,task-switching-replication,2021.2.3,60.001688051030634,
2,24,experiment,10,sitting,noswitch,incongruant,solid,triangle,blue,stimuli/solid-rectangle.png,stimuli/blue-triangle.png,1,,,,,,,,,,,,,,,,,,,,,,,,,0,0,0,0,1,0,1,0,0,23,23,23,,,,,,,,,,,,,,,,,,,,,,,,,,,,,,,,,,,,,,,,,,,,,,,,,,,,,,,,,,,,,,,1636058279.609397,,,,,,,,,,390.0180058479309,None,,,,,,,,,,,,,,,,,,,,,,,,,,,,,,,,,,,,,,387.64577293395996,None,388.63425397872925,None,1,1,1.2259528636932373,388.63425397872925,None,,,,,8001,001,10,2021_Nov_04_1531,task-switching-replication,2021.2.3,60.001688051030634,
2,25,experiment,10,sitting,switch,congruant,dashed,square,yellow,stimuli/dashed-rectangle.png,stimuli/yellow-square.png,1,,,,,,,,,,,,,,,,,,,,,,,,,0,0,0,0,1,0,1,0,0,24,24,24,,,,,,,,,,,,,,,,,,,,,,,,,,,,,,,,,,,,,,,,,,,,,,,,,,,,,,,,,,,,,,,1636058281.494694,,,,,,,,,,391.9044888019562,None,,,,,,,,,,,,,,,,,,,,,,,,,,,,,,,,,,,,,,390.24663400650024,None,391.23417496681213,None,1,1,0.5465340614318848,391.23417496681213,None,,,,,8001,001,10,2021_Nov_04_1531,task-switching-replication,2021.2.3,60.001688051030634,
2,26,experiment,10,sitting,switch,incongruant,solid,triangle,yellow,stimuli/solid-rectangle.png,stimuli/yellow-triangle.png,2,,,,,,,,,,,,,,,,,,,,,,,,,0,0,0,0,1,0,1,0,0,25,25,25,,,,,,,,,,,,,,,,,,,,,,,,,,,,,,,,,,,,,,,,,,,,,,,,,,,,,,,,,,,,,,,1636058283.9765112,,,,,,,,,,394.3855118751526,None,,,,,,,,,,,,,,,,,,,,,,,,,,,,,,,,,,,,,,392.1335458755493,None,393.12150478363037,None,2,1,1.115631103515625,393.12150478363037,None,,,,,8001,001,10,2021_Nov_04_1531,task-switching-replication,2021.2.3,60.001688051030634,
2,27,experiment,10,sitting,noswitch,congruant,solid,square,yellow,stimuli/solid-rectangle.png,stimuli/yellow-square.png,2,,,,,,,,,,,,,,,,,,,,,,,,,0,0,0,0,1,0,1,0,0,26,26,26,,,,,,,,,,,,,,,,,,,,,,,,,,,,,,,,,,,,,,,,,,,,,,,,,,,,,,,,,,,,,,,1636058285.7453063,,,,,,,,,,396.15503096580505,None,,,,,,,,,,,,,,,,,,,,,,,,,,,,,,,,,,,,,,394.6152398586273,None,395.60331177711487,None,2,1,0.425447940826416,395.60331177711487,None,,,,,8001,001,10,2021_Nov_04_1531,task-switching-replication,2021.2.3,60.001688051030634,
2,28,experiment,10,sitting,switch,incongruant,dashed,square,blue,stimuli/dashed-rectangle.png,stimuli/blue-square.png,1,,,,,,,,,,,,,,,,,,,,,,,,,0,0,0,0,1,0,1,0,0,27,27,27,,,,,,,,,,,,,,,,,,,,,,,,,,,,,,,,,,,,,,,,,,,,,,,,,,,,,,,,,,,,,,,1636058287.814302,,,,,,,,,,398.2234399318695,None,,,,,,,,,,,,,,,,,,,,,,,,,,,,,,,,,,,,,,396.38411688804626,None,397.3715319633484,None,1,1,0.718026876449585,397.3715319633484,None,,,,,8001,001,10,2021_Nov_04_1531,task-switching-replication,2021.2.3,60.001688051030634,
2,29,experiment,10,sitting,noswitch,incongruant,dashed,triangle,blue,stimuli/dashed-rectangle.png,stimuli/blue-triangle.png,2,,,,,,,,,,,,,,,,,,,,,,,,,0,0,0,0,1,0,1,0,0,28,28,28,,,,,,,,,,,,,,,,,,,,,,,,,,,,,,,,,,,,,,,,,,,,,,,,,,,,,,,,,,,,,,,1636058289.581894,,,,,,,,,,399.9913578033447,None,,,,,,,,,,,,,,,,,,,,,,,,,,,,,,,,,,,,,,398.45295691490173,None,399.44014382362366,None,2,1,0.44131898880004883,399.44014382362366,None,,,,,8001,001,10,2021_Nov_04_1531,task-switching-replication,2021.2.3,60.001688051030634,
2,30,experiment,10,sitting,noswitch,incongruant,dashed,square,yellow,stimuli/dashed-rectangle.png,stimuli/yellow-square.png,1,,,,,,,,,,,,,,,,,,,,,,,,,0,0,0,0,1,0,1,0,0,29,29,29,,,,,,,,,,,,,,,,,,,,,,,,,,,,,,,,,,,,,,,,,,,,,,,,,,,,,,,,,,,,,,,1636058291.649497,,,,,,,,,,402.05879497528076,None,,,,,,,,,,,,,,,,,,,,,,,,,,,,,,,,,,,,,,400.2205069065094,None,401.21053099632263,None,1,1,0.7369859218597412,401.21053099632263,None,,,,,8001,001,10,2021_Nov_04_1531,task-switching-replication,2021.2.3,60.001688051030634,
2,31,experiment,10,sitting,switch,congruant,solid,square,blue,stimuli/solid-rectangle.png,stimuli/blue-square.png,1,,,,,,,,,,,,,,,,,,,,,,,,,0,0,0,0,1,0,1,0,0,30,30,30,,,,,,,,,,,,,,,,,,,,,,,,,,,,,,,,,,,,,,,,,,,,,,,,,,,,,,,,,,,,,,,1636058293.5367124,,,,,,,,,,403.946576833725,None,,,,,,,,,,,,,,,,,,,,,,,,,,,,,,,,,,,,,,402.2881028652191,None,403.2762818336487,None,1,1,0.5513761043548584,403.2762818336487,None,,,,,8001,001,10,2021_Nov_04_1531,task-switching-replication,2021.2.3,60.001688051030634,
2,32,experiment,10,sitting,noswitch,congruant,solid,triangle,blue,stimuli/solid-rectangle.png,stimuli/blue-triangle.png,1,,,,,,,,,,,,,,,,,,,,,,,,,0,0,0,0,1,0,1,0,0,31,31,31,,,,,,,,,,,,,,,,,,,,,,,,,,,,,,,,,,,,,,,,,,,,,,,,,,,,,,,,,,,,,,,1636058295.5427585,,,,,,,,,,405.9524779319763,None,,,,,,,,,,,,,,,,,,,,,,,,,,,,,,,,,,,,,,404.17615580558777,None,405.16355180740356,None,1,1,0.659214973449707,405.16355180740356,None,,,,,8001,001,10,2021_Nov_04_1531,task-switching-replication,2021.2.3,60.001688051030634,
2,33,experiment,10,sitting,noswitch,congruant,solid,square,blue,stimuli/solid-rectangle.png,stimuli/blue-square.png,1,,,,,,,,,,,,,,,,,,,,,,,,,0,0,0,0,1,0,1,0,0,32,32,32,,,,,,,,,,,,,,,,,,,,,,,,,,,,,,,,,,,,,,,,,,,,,,,,,,,,,,,,,,,,,,,1636058297.4901433,,,,,,,,,,407.89992094039917,None,,,,,,,,,,,,,,,,,,,,,,,,,,,,,,,,,,,,,,406.1816599369049,None,407.1700048446655,None,1,1,0.5845880508422852,407.1700048446655,None,,,,,8001,001,10,2021_Nov_04_1531,task-switching-replication,2021.2.3,60.001688051030634,
2,34,experiment,10,sitting,noswitch,congruant,solid,triangle,blue,stimuli/solid-rectangle.png,stimuli/blue-triangle.png,1,,,,,,,,,,,,,,,,,,,,,,,,,0,0,0,0,1,0,1,0,0,33,33,33,,,,,,,,,,,,,,,,,,,,,,,,,,,,,,,,,,,,,,,,,,,,,,,,,,,,,,,,,,,,,,,1636058299.497999,,,,,,,,,,409.90774488449097,None,,,,,,,,,,,,,,,,,,,,,,,,,,,,,,,,,,,,,,408.12926483154297,None,409.1186537742615,None,1,1,0.6641230583190918,409.1186537742615,None,,,,,8001,001,10,2021_Nov_04_1531,task-switching-replication,2021.2.3,60.001688051030634,
2,35,experiment,10,sitting,switch,incongruant,dashed,triangle,yellow,stimuli/dashed-rectangle.png,stimuli/yellow-triangle.png,2,,,,,,,,,,,,,,,,,,,,,,,,,0,0,0,0,1,0,1,0,0,34,34,34,,,,,,,,,,,,,,,,,,,,,,,,,,,,,,,,,,,,,,,,,,,,,,,,,,,,,,,,,,,,,,,1636058301.8617783,,,,,,,,,,412.2710289955139,None,,,,,,,,,,,,,,,,,,,,,,,,,,,,,,,,,,,,,,410.1368498802185,None,411.1250138282776,None,2,1,1.007045030593872,411.1250138282776,None,,,,,8001,001,10,2021_Nov_04_1531,task-switching-replication,2021.2.3,60.001688051030634,
2,36,experiment,10,sitting,switch,incongruant,solid,square,blue,stimuli/solid-rectangle.png,stimuli/blue-square.png,1,,,,,,,,,,,,,,,,,,,,,,,,,0,0,0,0,1,0,1,0,0,35,35,35,,,,,,,,,,,,,,,,,,,,,,,,,,,,,,,,,,,,,,,,,,,,,,,,,,,,,,,,,,,,,,,1636058304.168499,,,,,,,,,,414.5778408050537,None,,,,,,,,,,,,,,,,,,,,,,,,,,,,,,,,,,,,,,412.5004949569702,None,413.48845291137695,None,1,1,0.9645950794219971,413.48845291137695,None,,,,,8001,001,10,2021_Nov_04_1531,task-switching-replication,2021.2.3,60.001688051030634,
2,37,experiment,10,sitting,noswitch,incongruant,solid,triangle,yellow,stimuli/solid-rectangle.png,stimuli/yellow-triangle.png,2,,,,,,,,,,,,,,,,,,,,,,,,,0,0,0,0,1,0,1,0,0,36,36,36,,,,,,,,,,,,,,,,,,,,,,,,,,,,,,,,,,,,,,,,,,,,,,,,,,,,,,,,,,,,,,,1636058306.3530023,,,,,,,,,,416.7620449066162,None,,,,,,,,,,,,,,,,,,,,,,,,,,,,,,,,,,,,,,414.8069078922272,None,415.7954738140106,None,2,1,0.8130021095275879,415.7954738140106,None,,,,,8001,001,10,2021_Nov_04_1531,task-switching-replication,2021.2.3,60.001688051030634,
2,38,experiment,10,sitting,switch,congruant,dashed,triangle,yellow,stimuli/dashed-rectangle.png,stimuli/yellow-triangle.png,2,,,,,,,,,,,,,,,,,,,,,,,,,0,0,0,0,1,0,1,0,0,37,37,37,,,,,0,0,0,0,,,,,,,,,,,,,,,,,,,,,,,,,,,,,,,,,,,,,,,,,,,,,,,,,,,,,,,1636058308.7775953,,,,,,,,,,,,419.1590758562088,420.1876938343048,419.1928768157959,None,,,,,,,,,,,,,,,,,,,,,,,,,,,,,,,,,,416.9913909435272,None,417.9821879863739,None,1,0,1.0970540046691895,417.9821879863739,None,,,,,8001,001,10,2021_Nov_04_1531,task-switching-replication,2021.2.3,60.001688051030634,
2,38,experiment,10,sitting,switch,congruant,dashed,triangle,yellow,stimuli/dashed-rectangle.png,stimuli/yellow-triangle.png,2,,,,,,,,,,,,,,,,,,,,,,,,,0,0,0,0,1,0,1,0,0,37,37,37,,,,,,,,,,,,,,,,,,,,,,,,,,,,,,,,,,,,,,,,,,,,,,,,,,,,,,,,,,,,,,,,,,,,,,,,,424.2093780040741,None,,,,,,,,,,,,,,,,,,,,,,,,,,,,,,,,,,,,,,,,,,,,,,,,,,,8001,001,10,2021_Nov_04_1531,task-switching-replication,2021.2.3,60.001688051030634,
2,39,experiment,10,sitting,switch,incongruant,solid,triangle,blue,stimuli/solid-rectangle.png,stimuli/blue-triangle.png,1,,,,,,,,,,,,,,,,,,,,,,,,,0,0,0,0,1,0,1,0,0,38,38,38,,,,,,,,,,,,,,,,,,,,,,,,,,,,,,,,,,,,,,,,,,,,,,,,,,,,,,,,,,,,,,,1636058316.128999,,,,,,,,,,426.53811383247375,None,,,,,,,,,,,,,,,,,,,,,,,,,,,,,,,,,,,,,,424.4060318470001,None,425.39393496513367,None,1,1,0.9857749938964844,425.39393496513367,None,,,,,8001,001,10,2021_Nov_04_1531,task-switching-replication,2021.2.3,60.001688051030634,
2,40,experiment,10,sitting,switch,incongruant,dashed,triangle,blue,stimuli/dashed-rectangle.png,stimuli/blue-triangle.png,2,,,,,,,,,,,,,,,,,,,,,,,,,0,0,0,0,1,0,1,0,0,39,39,39,,,,,0,0,0,0,,,,,,,,,,,,,,,,,,,,,,,,,,,,,,,,,,,,,,,,,,,,,,,,,,,,,,,1636058318.490703,,,,,,,,,,,,428.872153878212,429.8948669433594,428.9057698249817,None,,,,,,,,,,,,,,,,,,,,,,,,,,,,,,,,,,426.76745200157166,None,427.75620198249817,None,1,0,0.9882810115814209,427.75620198249817,None,,,,,8001,001,10,2021_Nov_04_1531,task-switching-replication,2021.2.3,60.001688051030634,
2,40,experiment,10,sitting,switch,incongruant,dashed,triangle,blue,stimuli/dashed-rectangle.png,stimuli/blue-triangle.png,2,,,,,,,,,,,,,,,,,,,,,,,,,0,0,0,0,1,0,1,0,0,39,39,39,,,,,,,,,,,,,,,,,,,,,,,,,,,,,,,,,,,,,,,,,,,,,,,,,,,,,,,,,,,,,,,,,,,,,,,,,433.91693091392517,None,,,,,,,,,,,,,,,,,,,,,,,,,,,,,,,,,,,,,,,,,,,,,,,,,,,8001,001,10,2021_Nov_04_1531,task-switching-replication,2021.2.3,60.001688051030634,
2,41,experiment,10,sitting,switch,congruant,solid,square,yellow,stimuli/solid-rectangle.png,stimuli/yellow-square.png,2,,,,,,,,,,,,,,,,,,,,,,,,,0,0,0,0,1,0,1,0,0,40,40,40,,,,,,,,,,,,,,,,,,,,,,,,,,,,,,,,,,,,,,,,,,,,,,,,,,,,,,,,,,,,,,,1636058325.7764068,,,,,,,,,,436.18623399734497,None,,,,,,,,,,,,,,,,,,,,,,,,,,,,,,,,,,,,,,434.1135618686676,None,435.1016228199005,None,2,1,0.9510140419006348,435.1016228199005,None,,,,,8001,001,10,2021_Nov_04_1531,task-switching-replication,2021.2.3,60.001688051030634,
2,42,experiment,10,sitting,switch,congruant,dashed,triangle,yellow,stimuli/dashed-rectangle.png,stimuli/yellow-triangle.png,2,,,,,,,,,,,,,,,,,,,,,,,,,0,0,0,0,1,0,1,0,0,41,41,41,,,,,,,,,,,,,,,,,,,,,,,,,,,,,,,,,,,,,,,,,,,,,,,,,,,,,,,,,,,,,,,1636058328.3738456,,,,,,,,,,438.783686876297,None,,,,,,,,,,,,,,,,,,,,,,,,,,,,,,,,,,,,,,436.4151418209076,None,437.4027419090271,None,2,1,1.2378809452056885,437.4027419090271,None,,,,,8001,001,10,2021_Nov_04_1531,task-switching-replication,2021.2.3,60.001688051030634,
2,43,experiment,10,sitting,noswitch,congruant,dashed,triangle,yellow,stimuli/dashed-rectangle.png,stimuli/yellow-triangle.png,2,,,,,,,,,,,,,,,,,,,,,,,,,0,0,0,0,1,0,1,0,0,42,42,42,,,,,,,,,,,,,,,,,,,,,,,,,,,,,,,,,,,,,,,,,,,,,,,,,,,,,,,,,,,,,,,1636058330.2017124,,,,,,,,,,440.6114718914032,None,,,,,,,,,,,,,,,,,,,,,,,,,,,,,,,,,,,,,,439.01250100135803,None,440.00047278404236,None,2,1,0.4772019386291504,440.00047278404236,None,,,,,8001,001,10,2021_Nov_04_1531,task-switching-replication,2021.2.3,60.001688051030634,
2,44,experiment,10,sitting,noswitch,incongruant,dashed,square,blue,stimuli/dashed-rectangle.png,stimuli/blue-square.png,1,,,,,,,,,,,,,,,,,,,,,,,,,0,0,0,0,1,0,1,0,0,43,43,43,,,,,,,,,,,,,,,,,,,,,,,,,,,,,,,,,,,,,,,,,,,,,,,,,,,,,,,,,,,,,,,1636058332.3844004,,,,,,,,,,442.79383087158203,None,,,,,,,,,,,,,,,,,,,,,,,,,,,,,,,,,,,,,,440.8406648635864,None,441.8279869556427,None,1,1,0.8617620468139648,441.8279869556427,None,,,,,8001,001,10,2021_Nov_04_1531,task-switching-replication,2021.2.3,60.001688051030634,
2,45,experiment,10,sitting,switch,congruant,solid,square,blue,stimuli/solid-rectangle.png,stimuli/blue-square.png,1,,,,,,,,,,,,,,,,,,,,,,,,,0,0,0,0,1,0,1,0,0,44,44,44,,,,,,,,,,,,,,,,,,,,,,,,,,,,,,,,,,,,,,,,,,,,,,,,,,,,,,,,,,,,,,,1636058335.0405312,,,,,,,,,,445.450297832489,None,,,,,,,,,,,,,,,,,,,,,,,,,,,,,,,,,,,,,,443.0231499671936,None,444.0106899738312,None,1,1,1.2857060432434082,444.0106899738312,None,,,,,8001,001,10,2021_Nov_04_1531,task-switching-replication,2021.2.3,60.001688051030634,
2,46,experiment,10,sitting,noswitch,incongruant,solid,triangle,yellow,stimuli/solid-rectangle.png,stimuli/yellow-triangle.png,2,,,,,,,,,,,,,,,,,,,,,,,,,0,0,0,0,1,0,1,0,0,45,45,45,,,,,,,,,,,,,,,,,,,,,,,,,,,,,,,,,,,,,,,,,,,,,,,,,,,,,,,,,,,,,,,1636058337.1688795,,,,,,,,,,447.57811880111694,None,,,,,,,,,,,,,,,,,,,,,,,,,,,,,,,,,,,,,,445.6792907714844,None,446.6669478416443,None,2,1,0.7765030860900879,446.6669478416443,None,,,,,8001,001,10,2021_Nov_04_1531,task-switching-replication,2021.2.3,60.001688051030634,
2,47,experiment,10,sitting,switch,incongruant,dashed,square,blue,stimuli/dashed-rectangle.png,stimuli/blue-square.png,1,,,,,,,,,,,,,,,,,,,,,,,,,0,0,0,0,1,0,1,0,0,46,46,46,,,,,,,,,,,,,,,,,,,,,,,,,,,,,,,,,,,,,,,,,,,,,,,,,,,,,,,,,,,,,,,1636058339.2368038,,,,,,,,,,449.6458349227905,None,,,,,,,,,,,,,,,,,,,,,,,,,,,,,,,,,,,,,,447.8073239326477,None,448.7953598499298,None,1,1,0.7170109748840332,448.7953598499298,None,,,,,8001,001,10,2021_Nov_04_1531,task-switching-replication,2021.2.3,60.001688051030634,
2,48,experiment,10,sitting,noswitch,incongruant,dashed,triangle,blue,stimuli/dashed-rectangle.png,stimuli/blue-triangle.png,2,,,,,,,,,,,,,,,,,,,,,,,,,0,0,0,0,1,0,1,0,0,47,47,47,,,,,,,,,,,,,,,,,,,,,,,,,,,,,,,,,,,,,,,,,,,,,,,,,,,,,,,,,,,,,,,1636058341.3607726,,,,,,,,,,451.7708628177643,None,,,,,,,,,,,,,,,,,,,,,,,,,,,,,,,,,,,,,,449.8753077983856,None,450.86345291137695,None,2,1,0.7971689701080322,450.86345291137695,None,,,,,8001,001,10,2021_Nov_04_1531,task-switching-replication,2021.2.3,60.001688051030634,
2,49,experiment,10,sitting,noswitch,incongruant,dashed,square,yellow,stimuli/dashed-rectangle.png,stimuli/yellow-square.png,1,,,,,,,,,,,,,,,,,,,,,,,,,0,0,0,0,1,0,1,0,0,48,48,48,,,,,,,,,,,,,,,,,,,,,,,,,,,,,,,,,,,,,,,,,,,,,,,,,,,,,,,,,,,,,,,1636058343.3734198,,,,,,,,,,453.78241181373596,None,,,,,,,,,,,,,,,,,,,,,,,,,,,,,,,,,,,,,,452.0001847743988,None,452.9881157875061,None,1,1,0.6652219295501709,452.9881157875061,None,,,,,8001,001,10,2021_Nov_04_1531,task-switching-replication,2021.2.3,60.001688051030634,
,,,10,,,,,,,,,,,,,,,,,,,,,,,,,,,,,,,,,,0,0,0,0,1,0,1,0,,,,,,,,,,,,,,,,,,,,,,,,,,,,,,,,,,,,,,,,,,,,,,,,,,,,,,,,,,,,,,,,,,,,,,,,,,,,,,,,,,,,,,,,,,,,,,,,,,,,,,,,,,,,,,,,,,,,,,,,,,,,,,,,,8001,001,10,2021_Nov_04_1531,task-switching-replication,2021.2.3,60.001688051030634,
3,1,experiment,10,sitting,buffer,buffer,solid,square,yellow,stimuli/solid-rectangle.png,stimuli/yellow-square.png,2,,,,,,,,,,,,,,,,,,,,,,,,,0,0,0,0,2,0,2,0,0,0,0,0,,,,,,,,,,,,,,,,,,,,,,,,,,,,,,,,,,,,,,,,,,,,,,,,,,,,,,,,,,,,,,,1636058360.9391067,,,,,,,,,,471.3497438430786,None,,,,,,,,,,,,,,,,,,,,,,,,,,454.0125539302826,None,2,13.784725904464722,454.0125539302826,None,467.89473581314087,None,2,1.1088330745697021,467.89473581314087,None,469.1582808494568,None,470.146146774292,None,2,1,1.1024360656738281,470.146146774292,None,,,,,8001,001,10,2021_Nov_04_1531,task-switching-replication,2021.2.3,60.001688051030634,
3,2,experiment,10,sitting,noswitch,congruant,solid,square,yellow,stimuli/solid-rectangle.png,stimuli/yellow-square.png,2,,,,,,,,,,,,,,,,,,,,,,,,,0,0,0,0,2,0,2,0,0,1,1,1,,,,,,,,,,,,,,,,,,,,,,,,,,,,,,,,,,,,,,,,,,,,,,,,,,,,,,,,,,,,,,,1636058362.7101014,,,,,,,,,,473.1199538707733,None,,,,,,,,,,,,,,,,,,,,,,,,,,,,,,,,,,,,,,471.57909989356995,None,472.5679647922516,None,2,1,0.41040587425231934,472.5679647922516,None,,,,,8001,001,10,2021_Nov_04_1531,task-switching-replication,2021.2.3,60.001688051030634,
3,3,experiment,10,sitting,noswitch,incongruant,solid,triangle,blue,stimuli/solid-rectangle.png,stimuli/blue-triangle.png,1,,,,,,,,,,,,,,,,,,,,,,,,,0,0,0,0,2,0,2,0,0,2,2,2,,,,,,,,,,,,,,,,,,,,,,,,,,,,,,,,,,,,,,,,,,,,,,,,,,,,,,,,,,,,,,,1636058364.361308,,,,,,,,,,474.77051281929016,None,,,,,,,,,,,,,,,,,,,,,,,,,,,,,,,,,,,,,,473.3490529060364,None,474.33726692199707,None,1,1,0.32268500328063965,474.33726692199707,None,,,,,8001,001,10,2021_Nov_04_1531,task-switching-replication,2021.2.3,60.001688051030634,
3,4,experiment,10,sitting,switch,incongruant,dashed,triangle,blue,stimuli/dashed-rectangle.png,stimuli/blue-triangle.png,2,,,,,,,,,,,,,,,,,,,,,,,,,0,0,0,0,2,0,2,0,0,3,3,3,,,,,,,,,,,,,,,,,,,,,,,,,,,,,,,,,,,,,,,,,,,,,,,,,,,,,,,,,,,,,,,1636058366.130518,,,,,,,,,,476.539705991745,None,,,,,,,,,,,,,,,,,,,,,,,,,,,,,,,,,,,,,,475.0003888607025,None,475.98840379714966,None,2,1,0.4076099395751953,475.98840379714966,None,,,,,8001,001,10,2021_Nov_04_1531,task-switching-replication,2021.2.3,60.001688051030634,
3,5,experiment,10,sitting,noswitch,congruant,dashed,triangle,blue,stimuli/dashed-rectangle.png,stimuli/blue-triangle.png,2,,,,,,,,,,,,,,,,,,,,,,,,,0,0,0,0,2,0,2,0,0,4,4,4,,,,,,,,,,,,,,,,,,,,,,,,,,,,,,,,,,,,,,,,,,,,,,,,,,,,,,,,,,,,,,,1636058367.8393471,,,,,,,,,,478.24910378456116,None,,,,,,,,,,,,,,,,,,,,,,,,,,,,,,,,,,,,,,476.7691249847412,None,477.75650000572205,None,2,1,0.3630359172821045,477.75650000572205,None,,,,,8001,001,10,2021_Nov_04_1531,task-switching-replication,2021.2.3,60.001688051030634,
3,6,experiment,10,sitting,switch,congruant,solid,square,yellow,stimuli/solid-rectangle.png,stimuli/yellow-square.png,2,,,,,,,,,,,,,,,,,,,,,,,,,0,0,0,0,2,0,2,0,0,5,5,5,,,,,,,,,,,,,,,,,,,,,,,,,,,,,,,,,,,,,,,,,,,,,,,,,,,,,,,,,,,,,,,1636058369.905909,,,,,,,,,,480.31570196151733,None,,,,,,,,,,,,,,,,,,,,,,,,,,,,,,,,,,,,,,478.47904992103577,None,479.46756196022034,None,2,1,0.6957828998565674,479.46756196022034,None,,,,,8001,001,10,2021_Nov_04_1531,task-switching-replication,2021.2.3,60.001688051030634,
3,7,experiment,10,sitting,switch,congruant,dashed,triangle,yellow,stimuli/dashed-rectangle.png,stimuli/yellow-triangle.png,2,,,,,,,,,,,,,,,,,,,,,,,,,0,0,0,0,2,0,2,0,0,6,6,6,,,,,,,,,,,,,,,,,,,,,,,,,,,,,,,,,,,,,,,,,,,,,,,,,,,,,,,,,,,,,,,1636058372.1498008,,,,,,,,,,482.5595428943634,None,,,,,,,,,,,,,,,,,,,,,,,,,,,,,,,,,,,,,,480.5448229312897,None,481.5335078239441,None,2,1,0.8879520893096924,481.5335078239441,None,,,,,8001,001,10,2021_Nov_04_1531,task-switching-replication,2021.2.3,60.001688051030634,
3,8,experiment,10,sitting,noswitch,incongruant,dashed,square,yellow,stimuli/dashed-rectangle.png,stimuli/yellow-square.png,1,,,,,,,,,,,,,,,,,,,,,,,,,0,0,0,0,2,0,2,0,0,7,7,7,,,,,,,,,,,,,,,,,,,,,,,,,,,,,,,,,,,,,,,,,,,,,,,,,,,,,,,,,,,,,,,1636058373.978576,,,,,,,,,,484.38749384880066,None,,,,,,,,,,,,,,,,,,,,,,,,,,,,,,,,,,,,,,482.7887477874756,None,483.77615690231323,None,1,1,0.4529910087585449,483.77615690231323,None,,,,,8001,001,10,2021_Nov_04_1531,task-switching-replication,2021.2.3,60.001688051030634,
3,9,experiment,10,sitting,switch,incongruant,solid,triangle,yellow,stimuli/solid-rectangle.png,stimuli/yellow-triangle.png,2,,,,,,,,,,,,,,,,,,,,,,,,,0,0,0,0,2,0,2,0,0,8,8,8,,,,,,,,,,,,,,,,,,,,,,,,,,,,,,,,,,,,,,,,,,,,,,,,,,,,,,,,,,,,,,,1636058376.4605548,,,,,,,,,,486.87002182006836,None,,,,,,,,,,,,,,,,,,,,,,,,,,,,,,,,,,,,,,484.61665987968445,None,485.6054677963257,None,2,1,1.125777006149292,485.6054677963257,None,,,,,8001,001,10,2021_Nov_04_1531,task-switching-replication,2021.2.3,60.001688051030634,
3,10,experiment,10,sitting,noswitch,incongruant,solid,triangle,blue,stimuli/solid-rectangle.png,stimuli/blue-triangle.png,1,,,,,,,,,,,,,,,,,,,,,,,,,0,0,0,0,2,0,2,0,0,9,9,9,,,,,,,,,,,,,,,,,,,,,,,,,,,,,,,,,,,,,,,,,,,,,,,,,,,,,,,,,,,,,,,1636058378.7636893,,,,,,,,,,489.1733968257904,None,,,,,,,,,,,,,,,,,,,,,,,,,,,,,,,,,,,,,,487.09966588020325,None,488.0879077911377,None,1,1,0.9723010063171387,488.0879077911377,None,,,,,8001,001,10,2021_Nov_04_1531,task-switching-replication,2021.2.3,60.001688051030634,
3,11,experiment,10,sitting,switch,congruant,dashed,square,blue,stimuli/dashed-rectangle.png,stimuli/blue-square.png,1,,,,,,,,,,,,,,,,,,,,,,,,,0,0,0,0,2,0,2,0,0,10,10,10,,,,,,,,,,,,,,,,,,,,,,,,,,,,,,,,,,,,,,,,,,,,,,,,,,,,,,,,,,,,,,,1636058380.9467425,,,,,,,,,,491.3567159175873,None,,,,,,,,,,,,,,,,,,,,,,,,,,,,,,,,,,,,,,489.4025650024414,None,490.3906719684601,None,1,1,0.8475079536437988,490.3906719684601,None,,,,,8001,001,10,2021_Nov_04_1531,task-switching-replication,2021.2.3,60.001688051030634,
3,12,experiment,10,sitting,noswitch,incongruant,dashed,triangle,yellow,stimuli/dashed-rectangle.png,stimuli/yellow-triangle.png,2,,,,,,,,,,,,,,,,,,,,,,,,,0,0,0,0,2,0,2,0,0,11,11,11,,,,,,,,,,,,,,,,,,,,,,,,,,,,,,,,,,,,,,,,,,,,,,,,,,,,,,,,,,,,,,,1636058382.8356862,,,,,,,,,,493.24491477012634,None,,,,,,,,,,,,,,,,,,,,,,,,,,,,,,,,,,,,,,491.5858759880066,None,492.57413697242737,None,2,1,0.5273189544677734,492.57413697242737,None,,,,,8001,001,10,2021_Nov_04_1531,task-switching-replication,2021.2.3,60.001688051030634,
3,13,experiment,10,sitting,switch,incongruant,solid,square,blue,stimuli/solid-rectangle.png,stimuli/blue-square.png,1,,,,,,,,,,,,,,,,,,,,,,,,,0,0,0,0,2,0,2,0,0,12,12,12,,,,,,,,,,,,,,,,,,,,,,,,,,,,,,,,,,,,,,,,,,,,,,,,,,,,,,,,,,,,,,,1636058384.841647,,,,,,,,,,495.2513909339905,None,,,,,,,,,,,,,,,,,,,,,,,,,,,,,,,,,,,,,,493.47440099716187,None,494.4628539085388,None,1,1,0.6800370216369629,494.4628539085388,None,,,,,8001,001,10,2021_Nov_04_1531,task-switching-replication,2021.2.3,60.001688051030634,
3,14,experiment,10,sitting,noswitch,congruant,solid,square,blue,stimuli/solid-rectangle.png,stimuli/blue-square.png,1,,,,,,,,,,,,,,,,,,,,,,,,,0,0,0,0,2,0,2,0,0,13,13,13,,,,,,,,,,,,,,,,,,,,,,,,,,,,,,,,,,,,,,,,,,,,,,,,,,,,,,,,,,,,,,,1636058386.7893617,,,,,,,,,,497.1992118358612,None,,,,,,,,,,,,,,,,,,,,,,,,,,,,,,,,,,,,,,495.4807379245758,None,496.4690008163452,None,1,1,0.6177570819854736,496.4690008163452,None,,,,,8001,001,10,2021_Nov_04_1531,task-switching-replication,2021.2.3,60.001688051030634,
3,15,experiment,10,sitting,noswitch,incongruant,solid,triangle,yellow,stimuli/solid-rectangle.png,stimuli/yellow-triangle.png,2,,,,,,,,,,,,,,,,,,,,,,,,,0,0,0,0,2,0,2,0,0,14,14,14,,,,,,,,,,,,,,,,,,,,,,,,,,,,,,,,,,,,,,,,,,,,,,,,,,,,,,,,,,,,,,,1636058388.5037305,,,,,,,,,,498.91275095939636,None,,,,,,,,,,,,,,,,,,,,,,,,,,,,,,,,,,,,,,497.42806577682495,None,498.4162118434906,None,2,1,0.36243414878845215,498.4162118434906,None,,,,,8001,001,10,2021_Nov_04_1531,task-switching-replication,2021.2.3,60.001688051030634,
3,16,experiment,10,sitting,noswitch,congruant,solid,triangle,yellow,stimuli/solid-rectangle.png,stimuli/yellow-triangle.png,2,,,,,,,,,,,,,,,,,,,,,,,,,0,0,0,0,2,0,2,0,0,15,15,15,,,,,,,,,,,,,,,,,,,,,,,,,,,,,,,,,,,,,,,,,,,,,,,,,,,,,,,,,,,,,,,1636058390.2735384,,,,,,,,,,500.68328881263733,None,,,,,,,,,,,,,,,,,,,,,,,,,,,,,,,,,,,,,,499.1427218914032,None,500.1310248374939,None,2,1,0.408297061920166,500.1310248374939,None,,,,,8001,001,10,2021_Nov_04_1531,task-switching-replication,2021.2.3,60.001688051030634,
3,17,experiment,10,sitting,noswitch,congruant,solid,triangle,yellow,stimuli/solid-rectangle.png,stimuli/yellow-triangle.png,2,,,,,,,,,,,,,,,,,,,,,,,,,0,0,0,0,2,0,2,0,0,16,16,16,,,,,,,,,,,,,,,,,,,,,,,,,,,,,,,,,,,,,,,,,,,,,,,,,,,,,,,,,,,,,,,1636058391.9857824,,,,,,,,,,502.3957109451294,None,,,,,,,,,,,,,,,,,,,,,,,,,,,,,,,,,,,,,,500.9122338294983,None,501.9026868343353,None,2,1,0.3811311721801758,501.9026868343353,None,,,,,8001,001,10,2021_Nov_04_1531,task-switching-replication,2021.2.3,60.001688051030634,
3,18,experiment,10,sitting,noswitch,congruant,solid,square,yellow,stimuli/solid-rectangle.png,stimuli/yellow-square.png,2,,,,,,,,,,,,,,,,,,,,,,,,,0,0,0,0,2,0,2,0,0,17,17,17,,,,,,,,,,,,,,,,,,,,,,,,,,,,,,,,,,,,,,,,,,,,,,,,,,,,,,,,,,,,,,,1636058394.0516768,,,,,,,,,,504.4616439342499,None,,,,,,,,,,,,,,,,,,,,,,,,,,,,,,,,,,,,,,502.62494683265686,None,503.613285779953,None,2,1,0.7364068031311035,503.613285779953,None,,,,,8001,001,10,2021_Nov_04_1531,task-switching-replication,2021.2.3,60.001688051030634,
3,19,experiment,10,sitting,switch,congruant,dashed,triangle,yellow,stimuli/dashed-rectangle.png,stimuli/yellow-triangle.png,2,,,,,,,,,,,,,,,,,,,,,,,,,0,0,0,0,2,0,2,0,0,18,18,18,,,,,,,,,,,,,,,,,,,,,,,,,,,,,,,,,,,,,,,,,,,,,,,,,,,,,,,,,,,,,,,1636058396.2971585,,,,,,,,,,506.7068979740143,None,,,,,,,,,,,,,,,,,,,,,,,,,,,,,,,,,,,,,,504.69096088409424,None,505.68057584762573,None,2,1,0.8747379779815674,505.68057584762573,None,,,,,8001,001,10,2021_Nov_04_1531,task-switching-replication,2021.2.3,60.001688051030634,
3,20,experiment,10,sitting,switch,incongruant,solid,triangle,blue,stimuli/solid-rectangle.png,stimuli/blue-triangle.png,1,,,,,,,,,,,,,,,,,,,,,,,,,0,0,0,0,2,0,2,0,0,19,19,19,,,,,,,,,,,,,,,,,,,,,,,,,,,,,,,,,,,,,,,,,,,,,,,,,,,,,,,,,,,,,,,1636058398.1295497,,,,,,,,,,508.5385317802429,None,,,,,,,,,,,,,,,,,,,,,,,,,,,,,,,,,,,,,,506.93619894981384,None,507.92473578453064,None,1,1,0.4552490711212158,507.92473578453064,None,,,,,8001,001,10,2021_Nov_04_1531,task-switching-replication,2021.2.3,60.001688051030634,
3,21,experiment,10,sitting,switch,incongruant,dashed,triangle,blue,stimuli/dashed-rectangle.png,stimuli/blue-triangle.png,2,,,,,,,,,,,,,,,,,,,,,,,,,0,0,0,0,2,0,2,0,0,20,20,20,,,,,0,0,0,0,,,,,,,,,,,,,,,,,,,,,,,,,,,,,,,,,,,,,,,,,,,,,,,,,,,,,,,1636058400.0160909,,,,,,,,,,,,510.3975077867508,511.4212169647217,510.43151783943176,None,,,,,,,,,,,,,,,,,,,,,,,,,,,,,,,,,,508.76793098449707,None,509.7559390068054,None,1,0,0.56915283203125,509.7559390068054,None,,,,,8001,001,10,2021_Nov_04_1531,task-switching-replication,2021.2.3,60.001688051030634,
3,21,experiment,10,sitting,switch,incongruant,dashed,triangle,blue,stimuli/dashed-rectangle.png,stimuli/blue-triangle.png,2,,,,,,,,,,,,,,,,,,,,,,,,,0,0,0,0,2,0,2,0,0,20,20,20,,,,,,,,,,,,,,,,,,,,,,,,,,,,,,,,,,,,,,,,,,,,,,,,,,,,,,,,,,,,,,,,,,,,,,,,,515.4435977935791,None,,,,,,,,,,,,,,,,,,,,,,,,,,,,,,,,,,,,,,,,,,,,,,,,,,,8001,001,10,2021_Nov_04_1531,task-switching-replication,2021.2.3,60.001688051030634,
3,22,experiment,10,sitting,switch,incongruant,solid,square,blue,stimuli/solid-rectangle.png,stimuli/blue-square.png,1,,,,,,,,,,,,,,,,,,,,,,,,,0,0,0,0,2,0,2,0,0,21,21,21,,,,,,,,,,,,,,,,,,,,,,,,,,,,,,,,,,,,,,,,,,,,,,,,,,,,,,,,,,,,,,,1636058407.2445972,,,,,,,,,,517.6536428928375,None,,,,,,,,,,,,,,,,,,,,,,,,,,,,,,,,,,,,,,515.6403369903564,None,516.6287479400635,None,1,1,0.8765761852264404,516.6287479400635,None,,,,,8001,001,10,2021_Nov_04_1531,task-switching-replication,2021.2.3,60.001688051030634,
3,23,experiment,10,sitting,noswitch,congruant,solid,square,blue,stimuli/solid-rectangle.png,stimuli/blue-square.png,1,,,,,,,,,,,,,,,,,,,,,,,,,0,0,0,0,2,0,2,0,0,22,22,22,,,,,,,,,,,,,,,,,,,,,,,,,,,,,,,,,,,,,,,,,,,,,,,,,,,,,,,,,,,,,,,1636058409.2510188,,,,,,,,,,519.6608879566193,None,,,,,,,,,,,,,,,,,,,,,,,,,,,,,,,,,,,,,,517.8831248283386,None,518.8714768886566,None,1,1,0.660581111907959,518.8714768886566,None,,,,,8001,001,10,2021_Nov_04_1531,task-switching-replication,2021.2.3,60.001688051030634,
3,24,experiment,10,sitting,switch,incongruant,dashed,triangle,yellow,stimuli/dashed-rectangle.png,stimuli/yellow-triangle.png,2,,,,,,,,,,,,,,,,,,,,,,,,,0,0,0,0,2,0,2,0,0,23,23,23,,,,,,,,,,,,,,,,,,,,,,,,,,,,,,,,,,,,,,,,,,,,,,,,,,,,,,,,,,,,,,,1636058411.1406784,,,,,,,,,,521.5500609874725,None,,,,,,,,,,,,,,,,,,,,,,,,,,,,,,,,,,,,,,519.8900949954987,None,520.8773019313812,None,2,1,0.5089890956878662,520.8773019313812,None,,,,,8001,001,10,2021_Nov_04_1531,task-switching-replication,2021.2.3,60.001688051030634,
3,25,experiment,10,sitting,noswitch,incongruant,dashed,square,yellow,stimuli/dashed-rectangle.png,stimuli/yellow-square.png,1,,,,,,,,,,,,,,,,,,,,,,,,,0,0,0,0,2,0,2,0,0,24,24,24,,,,,,,,,,,,,,,,,,,,,,,,,,,,,,,,,,,,,,,,,,,,,,,,,,,,,,,,,,,,,,,1636058413.442761,,,,,,,,,,523.8520770072937,None,,,,,,,,,,,,,,,,,,,,,,,,,,,,,,,,,,,,,,521.7792677879333,None,522.7676448822021,None,1,1,0.970304012298584,522.7676448822021,None,,,,,8001,001,10,2021_Nov_04_1531,task-switching-replication,2021.2.3,60.001688051030634,
3,26,experiment,10,sitting,switch,congruant,solid,triangle,blue,stimuli/solid-rectangle.png,stimuli/blue-triangle.png,1,,,,,,,,,,,,,,,,,,,,,,,,,0,0,0,0,2,0,2,0,0,25,25,25,,,,,,,,,,,,,,,,,,,,,,,,,,,,,,,,,,,,,,,,,,,,,,,,,,,,,,,,,,,,,,,1636058415.566438,,,,,,,,,,525.9761168956757,None,,,,,,,,,,,,,,,,,,,,,,,,,,,,,,,,,,,,,,524.0812978744507,None,525.069228887558,None,1,1,0.7859210968017578,525.069228887558,None,,,,,8001,001,10,2021_Nov_04_1531,task-switching-replication,2021.2.3,60.001688051030634,
3,27,experiment,10,sitting,switch,congruant,dashed,square,blue,stimuli/dashed-rectangle.png,stimuli/blue-square.png,1,,,,,,,,,,,,,,,,,,,,,,,,,0,0,0,0,2,0,2,0,0,26,26,26,,,,,,,,,,,,,,,,,,,,,,,,,,,,,,,,,,,,,,,,,,,,,,,,,,,,,,,,,,,,,,,1636058417.749453,,,,,,,,,,528.1592688560486,None,,,,,,,,,,,,,,,,,,,,,,,,,,,,,,,,,,,,,,526.2053020000458,None,527.193000793457,None,1,1,0.8170671463012695,527.193000793457,None,,,,,8001,001,10,2021_Nov_04_1531,task-switching-replication,2021.2.3,60.001688051030634,
3,28,experiment,10,sitting,noswitch,incongruant,dashed,triangle,yellow,stimuli/dashed-rectangle.png,stimuli/yellow-triangle.png,2,,,,,,,,,,,,,,,,,,,,,,,,,0,0,0,0,2,0,2,0,0,27,27,27,,,,,,,,,,,,,,,,,,,,,,,,,,,,,,,,,,,,,,,,,,,,,,,,,,,,,,,,,,,,,,,1636058419.699096,,,,,,,,,,530.1081809997559,None,,,,,,,,,,,,,,,,,,,,,,,,,,,,,,,,,,,,,,528.3881599903107,None,529.3760559558868,None,2,1,0.6032619476318359,529.3760559558868,None,,,,,8001,001,10,2021_Nov_04_1531,task-switching-replication,2021.2.3,60.001688051030634,
3,29,experiment,10,sitting,noswitch,congruant,dashed,triangle,yellow,stimuli/dashed-rectangle.png,stimuli/yellow-triangle.png,2,,,,,,,,,,,,,,,,,,,,,,,,,0,0,0,0,2,0,2,0,0,28,28,28,,,,,,,,,,,,,,,,,,,,,,,,,,,,,,,,,,,,,,,,,,,,,,,,,,,,,,,,,,,,,,,1636058421.70503,,,,,,,,,,532.1148087978363,None,,,,,,,,,,,,,,,,,,,,,,,,,,,,,,,,,,,,,,530.337189912796,None,531.325779914856,None,2,1,0.6433119773864746,531.325779914856,None,,,,,8001,001,10,2021_Nov_04_1531,task-switching-replication,2021.2.3,60.001688051030634,
3,30,experiment,10,sitting,switch,incongruant,solid,square,blue,stimuli/solid-rectangle.png,stimuli/blue-square.png,1,,,,,,,,,,,,,,,,,,,,,,,,,0,0,0,0,2,0,2,0,0,29,29,29,,,,,,,,,,,,,,,,,,,,,,,,,,,,,,,,,,,,,,,,,,,,,,,,,,,,,,,,,,,,,,,1636058423.5943582,,,,,,,,,,534.0035328865051,None,,,,,,,,,,,,,,,,,,,,,,,,,,,,,,,,,,,,,,532.3442549705505,None,533.3330118656158,None,1,1,0.5270509719848633,533.3330118656158,None,,,,,8001,001,10,2021_Nov_04_1531,task-switching-replication,2021.2.3,60.001688051030634,
3,31,experiment,10,sitting,switch,congruant,dashed,square,yellow,stimuli/dashed-rectangle.png,stimuli/yellow-square.png,1,,,,,,,,,,,,,,,,,,,,,,,,,0,0,0,0,2,0,2,0,0,30,30,30,,,,,,,,,,,,,,,,,,,,,,,,,,,,,,,,,,,,,,,,,,,,,,,,,,,,,,,,,,,,,,,1636058425.8372793,,,,,,,,,,536.2471377849579,None,,,,,,,,,,,,,,,,,,,,,,,,,,,,,,,,,,,,,,534.2328457832336,None,535.2214868068695,None,1,1,0.8734481334686279,535.2214868068695,None,,,,,8001,001,10,2021_Nov_04_1531,task-switching-replication,2021.2.3,60.001688051030634,
3,32,experiment,10,sitting,noswitch,congruant,dashed,square,yellow,stimuli/dashed-rectangle.png,stimuli/yellow-square.png,1,,,,,,,,,,,,,,,,,,,,,,,,,0,0,0,0,2,0,2,0,0,31,31,31,,,,,,,,,,,,,,,,,,,,,,,,,,,,,,,,,,,,,,,,,,,,,,,,,,,,,,,,,,,,,,,1636058427.784215,,,,,,,,,,538.1949179172516,None,,,,,,,,,,,,,,,,,,,,,,,,,,,,,,,,,,,,,,536.4763889312744,None,537.4645118713379,None,1,1,0.6183929443359375,537.4645118713379,None,,,,,8001,001,10,2021_Nov_04_1531,task-switching-replication,2021.2.3,60.001688051030634,
3,33,experiment,10,sitting,noswitch,incongruant,dashed,triangle,blue,stimuli/dashed-rectangle.png,stimuli/blue-triangle.png,2,,,,,,,,,,,,,,,,,,,,,,,,,0,0,0,0,2,0,2,0,0,32,32,32,,,,,,,,,,,,,,,,,,,,,,,,,,,,,,,,,,,,,,,,,,,,,,,,,,,,,,,,,,,,,,,1636058429.8539581,,,,,,,,,,540.2631769180298,None,,,,,,,,,,,,,,,,,,,,,,,,,,,,,,,,,,,,,,538.4249029159546,None,539.4134259223938,None,2,1,0.7208139896392822,539.4134259223938,None,,,,,8001,001,10,2021_Nov_04_1531,task-switching-replication,2021.2.3,60.001688051030634,
