blockNum,trialNum,trialType,condition,posture,switchTrialType,congruantTrialType,cueType,shapeType,shapeColor,cueFileName,stimuliFileName,correctAnswer,untimedTrials.thisRepN,untimedTrials.thisTrialN,untimedTrials.thisN,untimedTrials.thisIndex,selectSolid1.thisRepN,selectSolid1.thisTrialN,selectSolid1.thisN,selectSolid1.thisIndex,selectDashed1.thisRepN,selectDashed1.thisTrialN,selectDashed1.thisN,selectDashed1.thisIndex,timedTrials.thisRepN,timedTrials.thisTrialN,timedTrials.thisN,timedTrials.thisIndex,selectSolid2.thisRepN,selectSolid2.thisTrialN,selectSolid2.thisN,selectSolid2.thisIndex,selectDashed2.thisRepN,selectDashed2.thisTrialN,selectDashed2.thisN,selectDashed2.thisIndex,postures.thisRepN,postures.thisTrialN,postures.thisN,postures.thisIndex,blocks.thisRepN,blocks.thisTrialN,blocks.thisN,blocks.thisIndex,trials.thisRepN,trials.thisTrialN,trials.thisN,trials.thisIndex,selectSolid.thisRepN,selectSolid.thisTrialN,selectSolid.thisN,selectSolid.thisIndex,selectDashed.thisRepN,selectDashed.thisTrialN,selectDashed.thisN,selectDashed.thisIndex,text_3.started,text_3.stopped,key_resp_2.keys,key_resp_2.rt,key_resp_2.started,key_resp_2.stopped,image_4.started,image_4.stopped,key_resp_4.keys,key_resp_4.rt,key_resp_4.started,key_resp_4.stopped,image_5.started,image_5.stopped,key_resp_5.keys,key_resp_5.rt,key_resp_5.started,key_resp_5.stopped,image_6.started,image_6.stopped,key_resp_6.keys,key_resp_6.rt,key_resp_6.started,key_resp_6.stopped,image_7.started,image_7.stopped,key_resp_7.keys,key_resp_7.rt,key_resp_7.started,key_resp_7.stopped,image_8.started,image_8.stopped,key_resp_8.keys,key_resp_8.rt,key_resp_8.started,key_resp_8.stopped,image_9.started,image_9.stopped,key_resp_9.keys,key_resp_9.rt,key_resp_9.started,key_resp_9.stopped,image_10.started,image_10.stopped,key_resp_10.keys,key_resp_10.rt,key_resp_10.started,key_resp_10.stopped,image_11.started,image_11.stopped,key_resp_11.keys,key_resp_11.rt,key_resp_11.started,key_resp_11.stopped,utcTime,cue_untimed_image.started,cue_untimed_image.stopped,stimuli_untimed_image.started,stimuli_untimed_image.stopped,untimed_resp.keys,untimed_resp.corr,untimed_resp.rt,untimed_resp.started,untimed_resp.stopped,text_2.started,text_2.stopped,sound_2.started,sound_2.stopped,image_3.started,image_3.stopped,sound_1.started,sound_1.stopped,image_2.started,image_2.stopped,image_12.started,image_12.stopped,key_resp_12.keys,key_resp_12.rt,key_resp_12.started,key_resp_12.stopped,image_13.started,image_13.stopped,key_resp_13.keys,key_resp_13.rt,key_resp_13.started,key_resp_13.stopped,cue_timed_image.started,cue_timed_image.stopped,stimuli_timed_image.started,stimuli_timed_image.stopped,timed_resp.keys,timed_resp.corr,timed_resp.rt,timed_resp.started,timed_resp.stopped,image.started,image.stopped,key_response.keys,key_response.rt,key_response.started,key_response.stopped,text.started,text.stopped,key_resp.keys,key_resp.rt,key_resp.started,key_resp.stopped,cue_image.started,cue_image.stopped,stimuli_image.started,stimuli_image.stopped,exp_resp.keys,exp_resp.corr,exp_resp.rt,exp_resp.started,exp_resp.stopped,participant,session,condition,date,expName,psychopyVersion,frameRate,
,,,03,,,,,,,,,,,,,,,,,,,,,,,,,,,,,,,,,,,,,,,,,,,,,,,,,,,,,,53.08803105354309,None,2,77.21487808227539,53.08803105354309,None,,,,,,,,,,,,,,,,,,,,,,,,,,,,,,,,,,,,,,,,,,,,,,,,,,,,,,,,,,,,,,,,,,,,,,,,,,,,,,,,,,,,,,,,,,,,,,,,,,,,,,,,,,,,,,,8002,001,03,2021_Nov_04_1559,task-switching-replication,2021.2.3,59.99731075896676,
,,,03,,,,,,,,,,,,,,,,,,,,,,,,,,,,,,,,,,,,,,,,,,,,,,,,,,,,,,,,,,,,130.40624499320984,None,2,1.932401180267334,130.40624499320984,None,,,,,,,,,,,,,,,,,,,,,,,,,,,,,,,,,,,,,,,,,,,,,,,,,,,,,,,,,,,,,,,,,,,,,,,,,,,,,,,,,,,,,,,,,,,,,,,,,,,,,,,,,8002,001,03,2021_Nov_04_1559,task-switching-replication,2021.2.3,59.99731075896676,
,,,03,,,,,,,,,,,,,,,,,,,,,,,,,,,,,,,,,,,,,,,,,,,,,,,,,,,,,,,,,,,,,,,,,,132.46442008018494,None,1,44.05402898788452,132.46442008018494,None,,,,,,,,,,,,,,,,,,,,,,,,,,,,,,,,,,,,,,,,,,,,,,,,,,,,,,,,,,,,,,,,,,,,,,,,,,,,,,,,,,,,,,,,,,,,,,,,,,,8002,001,03,2021_Nov_04_1559,task-switching-replication,2021.2.3,59.99731075896676,
,,,03,,,,,,,,,,,,,,,,,,,,,,,,,,,,,,,,,,,,,,,,,,,,,,,,,,,,,,,,,,,,,,,,,,,,,,,,176.65470099449158,None,2,29.607594966888428,176.65470099449158,None,,,,,,,,,,,,,,,,,,,,,,,,,,,,,,,,,,,,,,,,,,,,,,,,,,,,,,,,,,,,,,,,,,,,,,,,,,,,,,,,,,,,,,,,,,,,,8002,001,03,2021_Nov_04_1559,task-switching-replication,2021.2.3,59.99731075896676,
,,,03,,,,,,,,,,,,,,,,,,,,,,,,,,,,,,,,,,,,,,,,,,,,,,,,,,,,,,,,,,,,,,,,,,,,,,,,,,,,,,206.3987021446228,None,2,7.848284959793091,206.3987021446228,None,,,,,,,,,,,,,,,,,,,,,,,,,,,,,,,,,,,,,,,,,,,,,,,,,,,,,,,,,,,,,,,,,,,,,,,,,,,,,,,,,,,,,,,8002,001,03,2021_Nov_04_1559,task-switching-replication,2021.2.3,59.99731075896676,
,,,03,,,,,,,,,,,,,,,,,,,,,,,,,,,,,,,,,,,,,,,,,,,,,,,,,,,,,,,,,,,,,,,,,,,,,,,,,,,,,,,,,,,,214.35593700408936,None,1,15.260108947753906,214.35593700408936,None,,,,,,,,,,,,,,,,,,,,,,,,,,,,,,,,,,,,,,,,,,,,,,,,,,,,,,,,,,,,,,,,,,,,,,,,,,,,,,,,,8002,001,03,2021_Nov_04_1559,task-switching-replication,2021.2.3,59.99731075896676,
,,,03,,,,,,,,,,,,,,,,,,,,,,,,,,,,,,,,,,,,,,,,,,,,,,,,,,,,,,,,,,,,,,,,,,,,,,,,,,,,,,,,,,,,,,,,,,229.73734998703003,None,2,79.37862205505371,229.73734998703003,None,,,,,,,,,,,,,,,,,,,,,,,,,,,,,,,,,,,,,,,,,,,,,,,,,,,,,,,,,,,,,,,,,,,,,,,,,,,8002,001,03,2021_Nov_04_1559,task-switching-replication,2021.2.3,59.99731075896676,
,,,03,,,,,,,,,,,,,,,,,,,,,,,,,,,,,,,,,,,,,,,,,,,,,,,,,,,,,,,,,,,,,,,,,,,,,,,,,,,,,,,,,,,,,,,,,,,,,,,,309.2008910179138,None,2,2.859684944152832,309.2008910179138,None,,,,,,,,,,,,,,,,,,,,,,,,,,,,,,,,,,,,,,,,,,,,,,,,,,,,,,,,,,,,,,,,,,,,,8002,001,03,2021_Nov_04_1559,task-switching-replication,2021.2.3,59.99731075896676,
,,,03,,,,,,,,,,,,,,,,,,,,,,,,,,,,,,,,,,,,,,,,,,,,,,,,,,,,,,,,,,,,,,,,,,,,,,,,,,,,,,,,,,,,,,,,,,,,,,,,,,,,,,312.1713709831238,None,1,25.87723708152771,312.1713709831238,None,,,,,,,,,,,,,,,,,,,,,,,,,,,,,,,,,,,,,,,,,,,,,,,,,,,,,,,,,,,,,,,8002,001,03,2021_Nov_04_1559,task-switching-replication,2021.2.3,59.99731075896676,
1,1,untimed,03,standing,buffer,buffer,solid,triangle,yellow,stimuli/solid-rectangle.png,stimuli/yellow-triangle.png,1,0,0,0,0,,,,,,,,,,,,,,,,,,,,,,,,,,,,,,,,,,,,,,,,,,,,,,,,,,,,,,,,,,,,,,,,,,,,,,,,,,,,,,,,,,,,,,,,,,,,,,,1636059881.7846465,338.2166349887848,None,339.1895229816437,None,1,1,1.1168510913848877,339.1895229816437,None,340.40711402893066,None,,,,,,,,,,,,,,,,,,,,,,,,,,,,,,,,,,,,,,,,,,,,,,,,,,,8002,001,03,2021_Nov_04_1559,task-switching-replication,2021.2.3,59.99731075896676,
1,2,untimed,03,standing,noswitch,congruant,solid,triangle,yellow,stimuli/solid-rectangle.png,stimuli/yellow-triangle.png,1,0,1,1,1,,,,,,,,,,,,,,,,,,,,,,,,,,,,,,,,,,,,,,,,,,,,,,,,,,,,,,,,,,,,,,,,,,,,,,,,,,,,,,,,,,,,,,,,,,,,,,,1636059883.4845152,340.6373610496521,None,341.61000394821167,None,1,1,0.39130592346191406,341.61000394821167,None,342.10636711120605,None,,,,,,,,,,,,,,,,,,,,,,,,,,,,,,,,,,,,,,,,,,,,,,,,,,,8002,001,03,2021_Nov_04_1559,task-switching-replication,2021.2.3,59.99731075896676,
1,3,untimed,03,standing,switch,congruant,dashed,triangle,blue,stimuli/dashed-rectangle.png,stimuli/blue-triangle.png,1,0,2,2,2,,,,,,,,,,,,,,,,,,,,,,,,,,,,,,,,,,,,,,,,,,,,,,,,,,,,,,,,,,,,,,,,,,,,,,,,,,,,,,,,,,,,,,,,,,,,,,,1636059885.185254,342.3364169597626,None,343.30970907211304,None,1,1,0.39159393310546875,343.30970907211304,None,343.80708408355713,None,,,,,,,,,,,,,,,,,,,,,,,,,,,,,,,,,,,,,,,,,,,,,,,,,,,8002,001,03,2021_Nov_04_1559,task-switching-replication,2021.2.3,59.99731075896676,
1,4,untimed,03,standing,noswitch,congruant,dashed,triangle,yellow,stimuli/dashed-rectangle.png,stimuli/yellow-triangle.png,1,0,3,3,3,,,,,,,,,,,,,,,,,,,,,,,,,,,,,,,,,,,,,,,,,,,,,,,,,,,,,,,,,,,,,,,,,,,,,,,,,,,,,,,,,,,,,,,,,,,,,,,1636059887.365924,344.03713297843933,None,345.0102050304413,None,1,1,0.8759670257568359,345.0102050304413,None,345.9877071380615,None,,,,,,,,,,,,,,,,,,,,,,,,,,,,,,,,,,,,,,,,,,,,,,,,,,,8002,001,03,2021_Nov_04_1559,task-switching-replication,2021.2.3,59.99731075896676,
1,5,untimed,03,standing,switch,congruant,solid,square,yellow,stimuli/solid-rectangle.png,stimuli/yellow-square.png,1,0,4,4,4,,,,,,,,,,,,,,,,,,,,,,,,,,,,,,,,,,,,,,,,,,,,,,,,,,,,,,,,,,,,,,,,,,,,,,,,,,,,,,,,,,,,,,,,,,,,,,,1636059889.6062055,346.2177200317383,None,347.1912169456482,None,1,1,0.9251809120178223,347.1912169456482,None,348.22801208496094,None,,,,,,,,,,,,,,,,,,,,,,,,,,,,,,,,,,,,,,,,,,,,,,,,,,,8002,001,03,2021_Nov_04_1559,task-switching-replication,2021.2.3,59.99731075896676,
1,6,untimed,03,standing,noswitch,incongruant,solid,triangle,blue,stimuli/solid-rectangle.png,stimuli/blue-triangle.png,2,0,5,5,5,,,,,,,,,,,,,,,,,,,,,,,,,,,,,,,,,,,,,,,,,,,,,,,,,,,,,,,,,,,,,,,,,,,,,,,,,,,,,,,,,,,,,,,,,,,,,,,1636059891.2508688,348.45794200897217,None,349.4325339794159,None,2,1,0.28495001792907715,349.4325339794159,None,349.87193608283997,None,,,,,,,,,,,,,,,,,,,,,,,,,,,,,,,,,,,,,,,,,,,,,,,,,,,8002,001,03,2021_Nov_04_1559,task-switching-replication,2021.2.3,59.99731075896676,
1,7,untimed,03,standing,switch,congruant,dashed,square,blue,stimuli/dashed-rectangle.png,stimuli/blue-square.png,2,0,6,6,6,,,,,0,0,0,0,,,,,,,,,,,,,,,,,,,,,,,,,,,,,,,,,,,,,,,,,,,,,,,,,,,,,,,,,,,,,,,,,,,,,,,,,,,,,,,,,,,,,,,1636059892.9507,350.1018350124359,None,351.07404112815857,None,1,0,0.36803197860717773,351.07404112815857,None,,,351.54430770874023,352.5623071193695,351.57708406448364,None,,,,,,,,,,,,,,,,,,,,,,,,,,,,,,,,,,,,,,,,,,,,,,,8002,001,03,2021_Nov_04_1559,task-switching-replication,2021.2.3,59.99731075896676,
1,7,untimed,03,standing,switch,congruant,dashed,square,blue,stimuli/dashed-rectangle.png,stimuli/blue-square.png,2,0,6,6,6,,,,,,,,,,,,,,,,,,,,,,,,,,,,,,,,,,,,,,,,,,,,,,,,,,,,,,,,,,,,,,,,,,,,,,,,,,,,,,,,,,,,,,,,,,,,,,,,,,,,,,,,,356.60407400131226,None,,,,,,,,,,,,,,,,,,,,,,,,,,,,,,,,,,,,,,,,,,,,,,,,,,,8002,001,03,2021_Nov_04_1559,task-switching-replication,2021.2.3,59.99731075896676,
1,8,untimed,03,standing,switch,congruant,solid,square,blue,stimuli/solid-rectangle.png,stimuli/blue-square.png,2,0,7,7,7,,,,,,,,,,,,,,,,,,,,,,,,,,,,,,,,,,,,,,,,,,,,,,,,,,,,,,,,,,,,,,,,,,,,,,,,,,,,,,,,,,,,,,,,,,,,,,,1636059901.396727,356.80153703689575,None,357.7742381095886,None,2,1,2.113866090774536,357.7742381095886,None,360.0177090167999,None,,,,,,,,,,,,,,,,,,,,,,,,,,,,,,,,,,,,,,,,,,,,,,,,,,,8002,001,03,2021_Nov_04_1559,task-switching-replication,2021.2.3,59.99731075896676,
1,9,untimed,03,standing,noswitch,congruant,solid,triangle,blue,stimuli/solid-rectangle.png,stimuli/blue-triangle.png,2,0,8,8,8,0,0,0,0,,,,,,,,,,,,,,,,,,,,,,,,,,,,,,,,,,,,,,,,,,,,,,,,,,,,,,,,,,,,,,,,,,,,,,,,,,,,,,,,,,,,,,,,,,,1636059903.5216665,360.24771094322205,None,361.2261641025543,None,1,0,0.788970947265625,361.2261641025543,None,,,,,,,362.11519265174866,363.1331739425659,362.1483509540558,None,,,,,,,,,,,,,,,,,,,,,,,,,,,,,,,,,,,,,,,,,,,8002,001,03,2021_Nov_04_1559,task-switching-replication,2021.2.3,59.99731075896676,
1,9,untimed,03,standing,noswitch,congruant,solid,triangle,blue,stimuli/solid-rectangle.png,stimuli/blue-triangle.png,2,0,8,8,8,,,,,,,,,,,,,,,,,,,,,,,,,,,,,,,,,,,,,,,,,,,,,,,,,,,,,,,,,,,,,,,,,,,,,,,,,,,,,,,,,,,,,,,,,,,,,,,,,,,,,,,,,367.1769759654999,None,,,,,,,,,,,,,,,,,,,,,,,,,,,,,,,,,,,,,,,,,,,,,,,,,,,8002,001,03,2021_Nov_04_1559,task-switching-replication,2021.2.3,59.99731075896676,
1,10,untimed,03,standing,switch,congruant,dashed,square,yellow,stimuli/dashed-rectangle.png,stimuli/yellow-square.png,2,0,9,9,9,,,,,0,0,0,0,,,,,,,,,,,,,,,,,,,,,,,,,,,,,,,,,,,,,,,,,,,,,,,,,,,,,,,,,,,,,,,,,,,,,,,,,,,,,,,,,,,,,,,1636059910.5222988,367.3744180202484,None,368.34675002098083,None,1,0,0.667443037033081,368.34675002098083,None,,,369.1158447265625,370.1348741054535,369.1494221687317,None,,,,,,,,,,,,,,,,,,,,,,,,,,,,,,,,,,,,,,,,,,,,,,,8002,001,03,2021_Nov_04_1559,task-switching-replication,2021.2.3,59.99731075896676,
1,10,untimed,03,standing,switch,congruant,dashed,square,yellow,stimuli/dashed-rectangle.png,stimuli/yellow-square.png,2,0,9,9,9,,,,,,,,,,,,,,,,,,,,,,,,,,,,,,,,,,,,,,,,,,,,,,,,,,,,,,,,,,,,,,,,,,,,,,,,,,,,,,,,,,,,,,,,,,,,,,,,,,,,,,,,,374.1438150405884,None,,,,,,,,,,,,,,,,,,,,,,,,,,,,,,,,,,,,,,,,,,,,,,,,,,,8002,001,03,2021_Nov_04_1559,task-switching-replication,2021.2.3,59.99731075896676,
1,11,untimed,03,standing,noswitch,congruant,dashed,square,blue,stimuli/dashed-rectangle.png,stimuli/blue-square.png,2,0,10,10,10,,,,,,,,,,,,,,,,,,,,,,,,,,,,,,,,,,,,,,,,,,,,,,,,,,,,,,,,,,,,,,,,,,,,,,,,,,,,,,,,,,,,,,,,,,,,,,,1636059917.2856245,374.3737909793854,None,375.34573793411255,None,2,1,0.42157912254333496,375.34573793411255,None,375.90680503845215,None,,,,,,,,,,,,,,,,,,,,,,,,,,,,,,,,,,,,,,,,,,,,,,,,,,,8002,001,03,2021_Nov_04_1559,task-switching-replication,2021.2.3,59.99731075896676,
1,12,untimed,03,standing,noswitch,incongruant,dashed,triangle,yellow,stimuli/dashed-rectangle.png,stimuli/yellow-triangle.png,1,0,11,11,11,,,,,,,,,,,,,,,,,,,,,,,,,,,,,,,,,,,,,,,,,,,,,,,,,,,,,,,,,,,,,,,,,,,,,,,,,,,,,,,,,,,,,,,,,,,,,,,1636059919.0472524,376.1366331577301,None,377.109148979187,None,1,1,0.4047720432281494,377.109148979187,None,377.6681749820709,None,,,,,,,,,,,,,,,,,,,,,,,,,,,,,,,,,,,,,,,,,,,,,,,,,,,8002,001,03,2021_Nov_04_1559,task-switching-replication,2021.2.3,59.99731075896676,
,,,03,,,,,,,,,,,,,,,,,,,,,,,,,,,,,,,,,,,,,,,,,,,,,,,,,,,,,,,,,,,,,,,,,,,,,,,,,,,,,,,,,,,,,,,,,,,,,,,,,,,,,,,,,,,,,,,,,,,,,,,,,,,,,,,,377.89846897125244,None,2,9.894776105880737,377.89846897125244,None,,,,,,,,,,,,,,,,,,,,,,,,,,,,,,,,,,,,,8002,001,03,2021_Nov_04_1559,task-switching-replication,2021.2.3,59.99731075896676,
,,,03,,,,,,,,,,,,,,,,,,,,,,,,,,,,,,,,,,,,,,,,,,,,,,,,,,,,,,,,,,,,,,,,,,,,,,,,,,,,,,,,,,,,,,,,,,,,,,,,,,,,,,,,,,,,,,,,,,,,,,,,,,,,,,,,,,,,,,387.9196720123291,None,1,28.190112113952637,387.9196720123291,None,,,,,,,,,,,,,,,,,,,,,,,,,,,,,,,8002,001,03,2021_Nov_04_1559,task-switching-replication,2021.2.3,59.99731075896676,
1,1,timed,03,standing,buffer,buffer,dashed,square,blue,stimuli/dashed-rectangle.png,stimuli/blue-square.png,2,,,,,,,,,,,,,0,0,0,0,,,,,,,,,,,,,,,,,,,,,,,,,,,,,,,,,,,,,,,,,,,,,,,,,,,,,,,,,,,,,,,,,,,,,,,,,,,,,,,,,,,1636059959.429561,,,,,,,,,,418.051057100296,None,,,,,,,,,,,,,,,,,,,,,416.2666370868683,None,417.2570331096649,None,2,1,0.6641368865966797,417.2570331096649,None,,,,,,,,,,,,,,,,,,,,,,8002,001,03,2021_Nov_04_1559,task-switching-replication,2021.2.3,59.99731075896676,
1,2,timed,03,standing,noswitch,congruant,dashed,square,blue,stimuli/dashed-rectangle.png,stimuli/blue-square.png,2,,,,,,,,,,,,,0,1,1,1,,,,,,,,,,,,,,,,,,,,,,,,,,,,,,,,,,,,,,,,,,,,,,,,,,,,,,,,,,,,,,,,,,,,,,,,,,,,,,,,,,,1636059961.3192365,,,,,,,,,,419.9409589767456,None,,,,,,,,,,,,,,,,,,,,,418.2803339958191,None,419.26979207992554,None,2,1,0.5381050109863281,419.26979207992554,None,,,,,,,,,,,,,,,,,,,,,,8002,001,03,2021_Nov_04_1559,task-switching-replication,2021.2.3,59.99731075896676,
1,3,timed,03,standing,switch,congruant,solid,square,blue,stimuli/solid-rectangle.png,stimuli/blue-square.png,2,,,,,,,,,,,,,0,2,2,2,,,,,,,,,,,,,,,,,,,,,,,,,,,,,,,,,,,,,,,,,,,,,,,,,,,,,,,,,,,,,,,,,,,,,,,,,,,,,,,,,,,1636059963.3861217,,,,,,,,,,422.0080440044403,None,,,,,,,,,,,,,,,,,,,,,420.17038202285767,None,421.1594660282135,None,2,1,0.7255430221557617,421.1594660282135,None,,,,,,,,,,,,,,,,,,,,,,8002,001,03,2021_Nov_04_1559,task-switching-replication,2021.2.3,59.99731075896676,
1,4,timed,03,standing,switch,incongruant,dashed,triangle,yellow,stimuli/dashed-rectangle.png,stimuli/yellow-triangle.png,1,,,,,,,,,,,,,0,3,3,3,,,,,,,,,,,,,,,,,,,,,,,,,,,,,,,,,,,,,,,,,,,,,,,,,,,,,,,,,,,,,,,,,,,,,,,,,,,,,,,,,,,1636059965.2756658,,,,,,,,,,423.89678716659546,None,,,,,,,,,,,,,,,,,,,,,422.23697900772095,None,423.2261950969696,None,1,1,0.5318179130554199,423.2261950969696,None,,,,,,,,,,,,,,,,,,,,,,8002,001,03,2021_Nov_04_1559,task-switching-replication,2021.2.3,59.99731075896676,
1,5,timed,03,standing,noswitch,incongruant,dashed,square,yellow,stimuli/dashed-rectangle.png,stimuli/yellow-square.png,2,,,,,,,,,,,,,0,4,4,4,,,,,,,,,,,,,,,,,,,,,,,,,,,,,,,,,,,,,,,,,,,,,,,,,,,,,,,,,,,,,,,,,,,,,,,,,,,,,,,,,,,1636059967.2864175,,,,,,,,,,425.9074590206146,None,,,,,,,,,,,,,,,,,,,,,424.1259469985962,None,425.1157031059265,None,2,1,0.648094892501831,425.1157031059265,None,,,,,,,,,,,,,,,,,,,,,,8002,001,03,2021_Nov_04_1559,task-switching-replication,2021.2.3,59.99731075896676,
1,6,timed,03,standing,switch,incongruant,solid,triangle,yellow,stimuli/solid-rectangle.png,stimuli/yellow-triangle.png,1,,,,,,,,,,,,,0,5,5,5,,,,,,,,,,,,,,,,,,,,,,,,,,,,,,,,,,,,,,,,,,,,,,,,,,,,,,,,,,,,,,,,,,,,,,,,,,,,,,,,,,,1636059969.473101,,,,,,,,,,428.09423995018005,None,,,,,,,,,,,,,,,,,,,,,426.1366591453552,None,427.12737798690796,None,1,1,0.8182821273803711,427.12737798690796,None,,,,,,,,,,,,,,,,,,,,,,8002,001,03,2021_Nov_04_1559,task-switching-replication,2021.2.3,59.99731075896676,
1,7,timed,03,standing,switch,incongruant,dashed,square,yellow,stimuli/dashed-rectangle.png,stimuli/yellow-square.png,2,,,,,,,,,,,,,0,6,6,6,,,,,,,,,,,,,,,,,,,,,,,,,,,,,,,,,,,,,,,,,,,,,,,,,,,,,,,,,,,,,,,,,,,,,,,,,,,,,,,,,,,1636059971.5426624,,,,,,,,,,430.1635241508484,None,,,,,,,,,,,,,,,,,,,,,428.32384395599365,None,429.313707113266,None,2,1,0.7214329242706299,429.313707113266,None,,,,,,,,,,,,,,,,,,,,,,8002,001,03,2021_Nov_04_1559,task-switching-replication,2021.2.3,59.99731075896676,
1,8,timed,03,standing,noswitch,congruant,dashed,square,blue,stimuli/dashed-rectangle.png,stimuli/blue-square.png,2,,,,,,,,,,,,,0,7,7,7,,,,,,,,,,,,,,,,,,,,,,,,,,,,,,,,,,,,,,,,,,,,,,,,,,,,,,,,,,,,,,,,,,,,,,,,,,,,,,,,,,,1636059973.7868164,,,,,,,,,,432.40845108032227,None,,,,,,,,,,,,,,,,,,,,,430.3928771018982,None,431.3823871612549,None,2,1,0.8954250812530518,431.3823871612549,None,,,,,,,,,,,,,,,,,,,,,,8002,001,03,2021_Nov_04_1559,task-switching-replication,2021.2.3,59.99731075896676,
1,9,timed,03,standing,switch,incongruant,solid,square,yellow,stimuli/solid-rectangle.png,stimuli/yellow-square.png,1,,,,,,,,,,,,,0,8,8,8,,,,,,,,,,,,,,,,,,,,,,,,,,,,,,,,,,,,,,,,,,,,,,,,,,,,,,,,,,,,,,,,,,,,,,,,,,,,,,,,,,,1636059975.91291,,,,,,,,,,434.53481006622314,None,,,,,,,,,,,,,,,,,,,,,432.63797307014465,None,433.62738513946533,None,1,1,0.8021368980407715,433.62738513946533,None,,,,,,,,,,,,,,,,,,,,,,8002,001,03,2021_Nov_04_1559,task-switching-replication,2021.2.3,59.99731075896676,
1,10,timed,03,standing,noswitch,incongruant,solid,triangle,blue,stimuli/solid-rectangle.png,stimuli/blue-triangle.png,2,,,,,,,,,,,,,0,9,9,9,,,,,,,,,,,,,,,,,,,,,,,,,,,,,,,,,,,,,,,,,,,,,,,,,,,,,,,,,,,,,,,,,,,,,,,,,,,,,,,,,,,1636059978.5195336,,,,,,,,,,437.1405460834503,None,,,,,,,,,,,,,,,,,,,,,434.7639420032501,None,435.7544400691986,None,2,1,1.2226810455322266,435.7544400691986,None,,,,,,,,,,,,,,,,,,,,,,8002,001,03,2021_Nov_04_1559,task-switching-replication,2021.2.3,59.99731075896676,
1,11,timed,03,standing,noswitch,congruant,solid,square,blue,stimuli/solid-rectangle.png,stimuli/blue-square.png,2,,,,,,,,,,,,,0,10,10,10,,,,,,,,,,,,,,,,,,,,,,,,,,,,,,,,,,,,,,,,,,,,,,,,,,,,,,,,,,,,,,,,,,,,,,,,,,,,,,,,,,,1636059980.5276577,,,,,,,,,,439.14947414398193,None,,,,,,,,,,,,,,,,,,,,,437.37020111083984,None,438.3599810600281,None,2,1,0.6409280300140381,438.3599810600281,None,,,,,,,,,,,,,,,,,,,,,,8002,001,03,2021_Nov_04_1559,task-switching-replication,2021.2.3,59.99731075896676,
1,12,timed,03,standing,switch,incongruant,dashed,triangle,blue,stimuli/dashed-rectangle.png,stimuli/blue-triangle.png,1,,,,,,,,,,,,,0,11,11,11,,,,,,,,,,,,,,,,,,,,,,,,,,,,,,,,,,,,,,,,,,,,,,,,,,,,,,,,,,,,,,,,,,,,,,,,,,,,,,,,,,,1636059982.2451112,,,,,,,,,,440.866259098053,None,,,,,,,,,,,,,,,,,,,,,439.37904596328735,None,440.36909198760986,None,1,1,0.34859800338745117,440.36909198760986,None,,,,,,,,,,,,,,,,,,,,,,8002,001,03,2021_Nov_04_1559,task-switching-replication,2021.2.3,59.99731075896676,
1,13,timed,03,standing,switch,congruant,solid,square,yellow,stimuli/solid-rectangle.png,stimuli/yellow-square.png,1,,,,,,,,,,,,,0,12,12,12,0,0,0,0,,,,,,,,,,,,,,,,,,,,,,,,,,,,,,,,,,,,,,,,,,,,,,,,,,,,,,,,,,,,,,,,,,,,,,,,,,,,,,,1636059984.135347,,,,,,,,,,,,,,,,442.72898268699646,443.7469570636749,442.76102113723755,None,,,,,,,,,,,,,441.0955970287323,None,442.08478593826294,None,2,0,0.5279898643493652,442.08478593826294,None,,,,,,,,,,,,,,,,,,,,,,8002,001,03,2021_Nov_04_1559,task-switching-replication,2021.2.3,59.99731075896676,
1,13,timed,03,standing,switch,congruant,solid,square,yellow,stimuli/solid-rectangle.png,stimuli/yellow-square.png,1,,,,,,,,,,,,,0,12,12,12,,,,,,,,,,,,,,,,,,,,,,,,,,,,,,,,,,,,,,,,,,,,,,,,,,,,,,,,,,,,,,,,,,,,,,,,,,,,,,,,,,,,,,,,,,,,,447.79176807403564,None,,,,,,,,,,,,,,,,,,,,,,,,,,,,,,,,,,,,,,,,,,,,,,,,,,,8002,001,03,2021_Nov_04_1559,task-switching-replication,2021.2.3,59.99731075896676,
1,14,timed,03,standing,noswitch,incongruant,solid,triangle,blue,stimuli/solid-rectangle.png,stimuli/blue-triangle.png,2,,,,,,,,,,,,,0,13,13,13,0,0,0,0,,,,,,,,,,,,,,,,,,,,,,,,,,,,,,,,,,,,,,,,,,,,,,,,,,,,,,,,,,,,,,,,,,,,,,,,,,,,,,,1636059991.266864,,,,,,,,,,,,,,,,449.8605206012726,450.8786790370941,449.8926820755005,None,,,,,,,,,,,,,447.98868203163147,None,448.97822093963623,None,1,0,0.7663061618804932,448.97822093963623,None,,,,,,,,,,,,,,,,,,,,,,8002,001,03,2021_Nov_04_1559,task-switching-replication,2021.2.3,59.99731075896676,
1,14,timed,03,standing,noswitch,incongruant,solid,triangle,blue,stimuli/solid-rectangle.png,stimuli/blue-triangle.png,2,,,,,,,,,,,,,0,13,13,13,,,,,,,,,,,,,,,,,,,,,,,,,,,,,,,,,,,,,,,,,,,,,,,,,,,,,,,,,,,,,,,,,,,,,,,,,,,,,,,,,,,,,,,,,,,,,454.89267802238464,None,,,,,,,,,,,,,,,,,,,,,,,,,,,,,,,,,,,,,,,,,,,,,,,,,,,8002,001,03,2021_Nov_04_1559,task-switching-replication,2021.2.3,59.99731075896676,
1,15,timed,03,standing,noswitch,congruant,solid,square,blue,stimuli/solid-rectangle.png,stimuli/blue-square.png,2,,,,,,,,,,,,,0,14,14,14,,,,,,,,,,,,,,,,,,,,,,,,,,,,,,,,,,,,,,,,,,,,,,,,,,,,,,,,,,,,,,,,,,,,,,,,,,,,,,,,,,,1636059998.1888022,,,,,,,,,,456.8104979991913,None,,,,,,,,,,,,,,,,,,,,,455.0907759666443,None,456.08055901527405,None,2,1,0.581294059753418,456.08055901527405,None,,,,,,,,,,,,,,,,,,,,,,8002,001,03,2021_Nov_04_1559,task-switching-replication,2021.2.3,59.99731075896676,
1,16,timed,03,standing,noswitch,congruant,solid,triangle,blue,stimuli/solid-rectangle.png,stimuli/blue-triangle.png,2,,,,,,,,,,,,,0,15,15,15,,,,,,,,,,,,,,,,,,,,,,,,,,,,,,,,,,,,,,,,,,,,,,,,,,,,,,,,,,,,,,,,,,,,,,,,,,,,,,,,,,,1636060000.4939718,,,,,,,,,,459.1155731678009,None,,,,,,,,,,,,,,,,,,,,,457.03968501091003,None,458.02982807159424,None,2,1,0.9488101005554199,458.02982807159424,None,,,,,,,,,,,,,,,,,,,,,,8002,001,03,2021_Nov_04_1559,task-switching-replication,2021.2.3,59.99731075896676,
1,17,timed,03,standing,switch,incongruant,dashed,triangle,yellow,stimuli/dashed-rectangle.png,stimuli/yellow-triangle.png,1,,,,,,,,,,,,,0,16,16,16,,,,,,,,,,,,,,,,,,,,,,,,,,,,,,,,,,,,,,,,,,,,,,,,,,,,,,,,,,,,,,,,,,,,,,,,,,,,,,,,,,,1636060002.679232,,,,,,,,,,461.3003730773926,None,,,,,,,,,,,,,,,,,,,,,459.34450912475586,None,460.3339500427246,None,1,1,0.8512680530548096,460.3339500427246,None,,,,,,,,,,,,,,,,,,,,,,8002,001,03,2021_Nov_04_1559,task-switching-replication,2021.2.3,59.99731075896676,
1,18,timed,03,standing,noswitch,congruant,dashed,triangle,yellow,stimuli/dashed-rectangle.png,stimuli/yellow-triangle.png,1,,,,,,,,,,,,,0,17,17,17,,,,,,,,,,,,,,,,,,,,,,,,,,,,,,,,,,,,,,,,,,,,,,,,,,,,,,,,,,,,,,,,,,,,,,,,,,,,,,,,,,,1636060004.4502223,,,,,,,,,,463.07206201553345,None,,,,,,,,,,,,,,,,,,,,,461.52970814704895,None,462.51976108551025,None,1,1,0.4477570056915283,462.51976108551025,None,,,,,,,,,,,,,,,,,,,,,,8002,001,03,2021_Nov_04_1559,task-switching-replication,2021.2.3,59.99731075896676,
1,19,timed,03,standing,switch,congruant,solid,square,yellow,stimuli/solid-rectangle.png,stimuli/yellow-square.png,1,,,,,,,,,,,,,0,18,18,18,0,0,0,0,,,,,,,,,,,,,,,,,,,,,,,,,,,,,,,,,,,,,,,,,,,,,,,,,,,,,,,,,,,,,,,,,,,,,,,,,,,,,,,1636060006.7571023,,,,,,,,,,,,,,,,465.35076451301575,466.4031960964203,465.38290309906006,None,,,,,,,,,,,,,463.301705121994,None,464.2912349700928,None,2,0,0.9484281539916992,464.2912349700928,None,,,,,,,,,,,,,,,,,,,,,,8002,001,03,2021_Nov_04_1559,task-switching-replication,2021.2.3,59.99731075896676,
1,19,timed,03,standing,switch,congruant,solid,square,yellow,stimuli/solid-rectangle.png,stimuli/yellow-square.png,1,,,,,,,,,,,,,0,18,18,18,,,,,,,,,,,,,,,,,,,,,,,,,,,,,,,,,,,,,,,,,,,,,,,,,,,,,,,,,,,,,,,,,,,,,,,,,,,,,,,,,,,,,,,,,,,,,470.3790531158447,None,,,,,,,,,,,,,,,,,,,,,,,,,,,,,,,,,,,,,,,,,,,,,,,,,,,8002,001,03,2021_Nov_04_1559,task-switching-replication,2021.2.3,59.99731075896676,
1,20,timed,03,standing,switch,congruant,dashed,triangle,blue,stimuli/dashed-rectangle.png,stimuli/blue-triangle.png,1,,,,,,,,,,,,,0,19,19,19,,,,,,,,,,,,,,,,,,,,,,,,,,,,,,,,,,,,,,,,,,,,,,,,,,,,,,,,,,,,,,,,,,,,,,,,,,,,,,,,,,,1636060013.5289595,,,,,,,,,,472.1508159637451,None,,,,,,,,,,,,,,,,,,,,,470.60841393470764,None,471.59817910194397,None,1,1,0.4398629665374756,471.59817910194397,None,,,,,,,,,,,,,,,,,,,,,,8002,001,03,2021_Nov_04_1559,task-switching-replication,2021.2.3,59.99731075896676,
1,21,timed,03,standing,noswitch,congruant,dashed,triangle,blue,stimuli/dashed-rectangle.png,stimuli/blue-triangle.png,1,,,,,,,,,,,,,0,20,20,20,,,,,,,,,,,,,,,,,,,,,,,,,,,,,,,,,,,,,,,,,,,,,,,,,,,,,,,,,,,,,,,,,,,,,,,,,,,,,,,,,,,1636060015.300023,,,,,,,,,,473.92198395729065,None,,,,,,,,,,,,,,,,,,,,,472.38007497787476,None,473.3698649406433,None,1,1,0.4455559253692627,473.3698649406433,None,,,,,,,,,,,,,,,,,,,,,,8002,001,03,2021_Nov_04_1559,task-switching-replication,2021.2.3,59.99731075896676,
1,22,timed,03,standing,noswitch,incongruant,dashed,square,yellow,stimuli/dashed-rectangle.png,stimuli/yellow-square.png,2,,,,,,,,,,,,,0,21,21,21,,,,,,,,,,,,,,,,,,,,,,,,,,,,,,,,,,,,,,,,,,,,,,,,,,,,,,,,,,,,,,,,,,,,,,,,,,,,,,,,,,,1636060017.2520356,,,,,,,,,,475.872985124588,None,,,,,,,,,,,,,,,,,,,,,474.1512551307678,None,475.1408610343933,None,2,1,0.5838429927825928,475.1408610343933,None,,,,,,,,,,,,,,,,,,,,,,8002,001,03,2021_Nov_04_1559,task-switching-replication,2021.2.3,59.99731075896676,
1,23,timed,03,standing,switch,incongruant,solid,triangle,yellow,stimuli/solid-rectangle.png,stimuli/yellow-triangle.png,1,,,,,,,,,,,,,0,22,22,22,0,0,0,0,,,,,,,,,,,,,,,,,,,,,,,,,,,,,,,,,,,,,,,,,,,,,,,,,,,,,,,,,,,,,,,,,,,,,,,,,,,,,,,1636060019.3781037,,,,,,,,,,,,,,,,477.97163367271423,478.990345954895,478.00472807884216,None,,,,,,,,,,,,,476.10233306884766,None,477.09176993370056,None,2,0,0.7609150409698486,477.09176993370056,None,,,,,,,,,,,,,,,,,,,,,,8002,001,03,2021_Nov_04_1559,task-switching-replication,2021.2.3,59.99731075896676,
1,23,timed,03,standing,switch,incongruant,solid,triangle,yellow,stimuli/solid-rectangle.png,stimuli/yellow-triangle.png,1,,,,,,,,,,,,,0,22,22,22,,,,,,,,,,,,,,,,,,,,,,,,,,,,,,,,,,,,,,,,,,,,,,,,,,,,,,,,,,,,,,,,,,,,,,,,,,,,,,,,,,,,,,,,,,,,,483.00723099708557,None,,,,,,,,,,,,,,,,,,,,,,,,,,,,,,,,,,,,,,,,,,,,,,,,,,,8002,001,03,2021_Nov_04_1559,task-switching-replication,2021.2.3,59.99731075896676,
1,24,timed,03,standing,noswitch,congruant,solid,triangle,yellow,stimuli/solid-rectangle.png,stimuli/yellow-triangle.png,1,,,,,,,,,,,,,0,23,23,23,,,,,,,,,,,,,,,,,,,,,,,,,,,,,,,,,,,,,,,,,,,,,,,,,,,,,,,,,,,,,,,,,,,,,,,,,,,,,,,,,,,1636060026.2452352,,,,,,,,,,484.86654806137085,None,,,,,,,,,,,,,,,,,,,,,483.20404505729675,None,484.19416999816895,None,1,1,0.5383660793304443,484.19416999816895,None,,,,,,,,,,,,,,,,,,,,,,8002,001,03,2021_Nov_04_1559,task-switching-replication,2021.2.3,59.99731075896676,
1,1,experiment,03,standing,buffer,buffer,solid,triangle,yellow,stimuli/solid-rectangle.png,stimuli/yellow-triangle.png,1,,,,,,,,,,,,,,,,,,,,,,,,,0,0,0,0,0,0,0,0,0,0,0,0,,,,,,,,,485.1092040538788,None,1,9.989097118377686,485.1092040538788,None,,,,,,,,,,,,,,,,,,,,,,,,,,,,,,,,,,,,,,,,,,,,,,,,,1636060048.56398,,,,,,,,,,507.18628311157227,None,,,,,,,,,,,,,,,,,,,,,,,,,,,,,,495.18680214881897,None,1,6.2878429889678955,495.18680214881897,None,501.5782871246338,None,1,3.4949519634246826,501.5782871246338,None,505.2297079563141,None,506.21898794174194,None,1,1,0.8082849979400635,506.21898794174194,None,8002,001,03,2021_Nov_04_1559,task-switching-replication,2021.2.3,59.99731075896676,
1,2,experiment,03,standing,noswitch,incongruant,solid,triangle,blue,stimuli/solid-rectangle.png,stimuli/blue-triangle.png,2,,,,,,,,,,,,,,,,,,,,,,,,,0,0,0,0,0,0,0,0,0,1,1,1,0,0,0,0,,,,,,,,,,,,,,,,,,,,,,,,,,,,,,,,,,,,,,,,,,,,,,,,,,,,,,,,,,,1636060050.5719163,,,,,,,,,,,,,,,,509.16545152664185,510.2069020271301,509.1984360218048,None,,,,,,,,,,,,,,,,,,,,,,,,,,,,,,,,,,507.4156229496002,None,508.4046239852905,None,1,0,0.6760411262512207,508.4046239852905,None,8002,001,03,2021_Nov_04_1559,task-switching-replication,2021.2.3,59.99731075896676,
1,2,experiment,03,standing,noswitch,incongruant,solid,triangle,blue,stimuli/solid-rectangle.png,stimuli/blue-triangle.png,2,,,,,,,,,,,,,,,,,,,,,,,,,0,0,0,0,0,0,0,0,0,1,1,1,,,,,,,,,,,,,,,,,,,,,,,,,,,,,,,,,,,,,,,,,,,,,,,,,,,,,,,,,,,,,,,,,,,,,,,,,514.2242000102997,None,,,,,,,,,,,,,,,,,,,,,,,,,,,,,,,,,,,,,,,,,,,,,,,,,,,8002,001,03,2021_Nov_04_1559,task-switching-replication,2021.2.3,59.99731075896676,
1,3,experiment,03,standing,switch,congruant,dashed,square,yellow,stimuli/dashed-rectangle.png,stimuli/yellow-square.png,2,,,,,,,,,,,,,,,,,,,,,,,,,0,0,0,0,0,0,0,0,0,2,2,2,,,,,,,,,,,,,,,,,,,,,,,,,,,,,,,,,,,,,,,,,,,,,,,,,,,,,,,,,,,,,,,1636060057.4034767,,,,,,,,,,516.0244560241699,None,,,,,,,,,,,,,,,,,,,,,,,,,,,,,,,,,,,,,,,,,,514.4217600822449,None,515.4117140769958,None,2,1,0.4640500545501709,515.4117140769958,None,8002,001,03,2021_Nov_04_1559,task-switching-replication,2021.2.3,59.99731075896676,
1,4,experiment,03,standing,switch,incongruant,solid,triangle,yellow,stimuli/solid-rectangle.png,stimuli/yellow-triangle.png,1,,,,,,,,,,,,,,,,,,,,,,,,,0,0,0,0,0,0,0,0,0,3,3,3,,,,,,,,,,,,,,,,,,,,,,,,,,,,,,,,,,,,,,,,,,,,,,,,,,,,,,,,,,,,,,,1636060059.3526824,,,,,,,,,,517.9736680984497,None,,,,,,,,,,,,,,,,,,,,,,,,,,,,,,,,,,,,,,,,,,516.2540149688721,None,517.2434940338135,None,1,1,0.5860209465026855,517.2434940338135,None,8002,001,03,2021_Nov_04_1559,task-switching-replication,2021.2.3,59.99731075896676,
1,5,experiment,03,standing,noswitch,congruant,solid,square,yellow,stimuli/solid-rectangle.png,stimuli/yellow-square.png,1,,,,,,,,,,,,,,,,,,,,,,,,,0,0,0,0,0,0,0,0,0,4,4,4,0,0,0,0,,,,,,,,,,,,,,,,,,,,,,,,,,,,,,,,,,,,,,,,,,,,,,,,,,,,,,,,,,,1636060061.2420373,,,,,,,,,,,,,,,,519.8355956077576,520.8533179759979,519.8684220314026,None,,,,,,,,,,,,,,,,,,,,,,,,,,,,,,,,,,518.203577041626,None,519.1929709911346,None,2,0,0.562122106552124,519.1929709911346,None,8002,001,03,2021_Nov_04_1559,task-switching-replication,2021.2.3,59.99731075896676,
1,5,experiment,03,standing,noswitch,congruant,solid,square,yellow,stimuli/solid-rectangle.png,stimuli/yellow-square.png,1,,,,,,,,,,,,,,,,,,,,,,,,,0,0,0,0,0,0,0,0,0,4,4,4,,,,,,,,,,,,,,,,,,,,,,,,,,,,,,,,,,,,,,,,,,,,,,,,,,,,,,,,,,,,,,,,,,,,,,,,,524.8971650600433,None,,,,,,,,,,,,,,,,,,,,,,,,,,,,,,,,,,,,,,,,,,,,,,,,,,,8002,001,03,2021_Nov_04_1559,task-switching-replication,2021.2.3,59.99731075896676,
1,6,experiment,03,standing,noswitch,incongruant,solid,square,blue,stimuli/solid-rectangle.png,stimuli/blue-square.png,2,,,,,,,,,,,,,,,,,,,,,,,,,0,0,0,0,0,0,0,0,0,5,5,5,,,,,,,,,,,,,,,,,,,,,,,,,,,,,,,,,,,,,,,,,,,,,,,,,,,,,,,,,,,,,,,1636060068.1969168,,,,,,,,,,526.8180060386658,None,,,,,,,,,,,,,,,,,,,,,,,,,,,,,,,,,,,,,,,,,,525.0945129394531,None,526.0841569900513,None,2,1,0.6094560623168945,526.0841569900513,None,8002,001,03,2021_Nov_04_1559,task-switching-replication,2021.2.3,59.99731075896676,
1,7,experiment,03,standing,switch,congruant,dashed,square,yellow,stimuli/dashed-rectangle.png,stimuli/yellow-square.png,2,,,,,,,,,,,,,,,,,,,,,,,,,0,0,0,0,0,0,0,0,0,6,6,6,,,,,,,,,,,,,,,,,,,,,,,,,,,,,,,,,,,,,,,,,,,,,,,,,,,,,,,,,,,,,,,1636060070.2648575,,,,,,,,,,528.8866560459137,None,,,,,,,,,,,,,,,,,,,,,,,,,,,,,,,,,,,,,,,,,,527.0475599765778,None,528.0374419689178,None,2,1,0.7259171009063721,528.0374419689178,None,8002,001,03,2021_Nov_04_1559,task-switching-replication,2021.2.3,59.99731075896676,
1,8,experiment,03,standing,switch,congruant,solid,triangle,blue,stimuli/solid-rectangle.png,stimuli/blue-triangle.png,2,,,,,,,,,,,,,,,,,,,,,,,,,0,0,0,0,0,0,0,0,0,7,7,7,,,,,,,,,,,,,,,,,,,,,,,,,,,,,,,,,,,,,,,,,,,,,,,,,,,,,,,,,,,,,,,1636060072.33258,,,,,,,,,,530.9544920921326,None,,,,,,,,,,,,,,,,,,,,,,,,,,,,,,,,,,,,,,,,,,529.1157541275024,None,530.1056959629059,None,2,1,0.7415227890014648,530.1056959629059,None,8002,001,03,2021_Nov_04_1559,task-switching-replication,2021.2.3,59.99731075896676,
1,9,experiment,03,standing,noswitch,incongruant,solid,square,yellow,stimuli/solid-rectangle.png,stimuli/yellow-square.png,1,,,,,,,,,,,,,,,,,,,,,,,,,0,0,0,0,0,0,0,0,0,8,8,8,,,,,,,,,,,,,,,,,,,,,,,,,,,,,,,,,,,,,,,,,,,,,,,,,,,,,,,,,,,,,,,1636060074.3451414,,,,,,,,,,532.9675130844116,None,,,,,,,,,,,,,,,,,,,,,,,,,,,,,,,,,,,,,,,,,,531.1837780475616,None,532.1734340190887,None,1,1,0.6587691307067871,532.1734340190887,None,8002,001,03,2021_Nov_04_1559,task-switching-replication,2021.2.3,59.99731075896676,
1,10,experiment,03,standing,switch,congruant,dashed,triangle,blue,stimuli/dashed-rectangle.png,stimuli/blue-triangle.png,1,,,,,,,,,,,,,,,,,,,,,,,,,0,0,0,0,0,0,0,0,0,9,9,9,,,,,,,,,,,,,,,,,,,,,,,,,,,,,,,,,,,,,,,,,,,,,,,,,,,,,,,,,,,,,,,1636060076.236128,,,,,,,,,,534.8580341339111,None,,,,,,,,,,,,,,,,,,,,,,,,,,,,,,,,,,,,,,,,,,533.1968541145325,None,534.1868541240692,None,1,1,0.5537619590759277,534.1868541240692,None,8002,001,03,2021_Nov_04_1559,task-switching-replication,2021.2.3,59.99731075896676,
1,11,experiment,03,standing,noswitch,congruant,dashed,triangle,blue,stimuli/dashed-rectangle.png,stimuli/blue-triangle.png,1,,,,,,,,,,,,,,,,,,,,,,,,,0,0,0,0,0,0,0,0,0,10,10,10,,,,,,,,,,,,,,,,,,,,,,,,,,,,,,,,,,,,,,,,,,,,,,,,,,,,,,,,,,,,,,,1636060077.889494,,,,,,,,,,536.5113980770111,None,,,,,,,,,,,,,,,,,,,,,,,,,,,,,,,,,,,,,,,,,,535.0875060558319,None,536.07759308815,None,1,1,0.3224759101867676,536.07759308815,None,8002,001,03,2021_Nov_04_1559,task-switching-replication,2021.2.3,59.99731075896676,
1,12,experiment,03,standing,switch,congruant,solid,triangle,yellow,stimuli/solid-rectangle.png,stimuli/yellow-triangle.png,1,,,,,,,,,,,,,,,,,,,,,,,,,0,0,0,0,0,0,0,0,0,11,11,11,0,0,0,0,,,,,,,,,,,,,,,,,,,,,,,,,,,,,,,,,,,,,,,,,,,,,,,,,,,,,,,,,,,1636060080.1396177,,,,,,,,,,,,,,,,538.7332377433777,539.785383939743,538.7653141021729,None,,,,,,,,,,,,,,,,,,,,,,,,,,,,,,,,,,536.7405390739441,None,537.7304730415344,None,2,0,0.8716719150543213,537.7304730415344,None,8002,001,03,2021_Nov_04_1559,task-switching-replication,2021.2.3,59.99731075896676,
1,12,experiment,03,standing,switch,congruant,solid,triangle,yellow,stimuli/solid-rectangle.png,stimuli/yellow-triangle.png,1,,,,,,,,,,,,,,,,,,,,,,,,,0,0,0,0,0,0,0,0,0,11,11,11,,,,,,,,,,,,,,,,,,,,,,,,,,,,,,,,,,,,,,,,,,,,,,,,,,,,,,,,,,,,,,,,,,,,,,,,,543.7913119792938,None,,,,,,,,,,,,,,,,,,,,,,,,,,,,,,,,,,,,,,,,,,,,,,,,,,,8002,001,03,2021_Nov_04_1559,task-switching-replication,2021.2.3,59.99731075896676,
1,13,experiment,03,standing,switch,congruant,dashed,triangle,blue,stimuli/dashed-rectangle.png,stimuli/blue-triangle.png,1,,,,,,,,,,,,,,,,,,,,,,,,,0,0,0,0,0,0,0,0,0,12,12,12,,,,,,,,,,,,,,,,,,,,,,,,,,,,,,,,,,,,,,,,,,,,,,,,,,,,,,,,,,,,,,,1636060087.2679002,,,,,,,,,,545.8891160488129,None,,,,,,,,,,,,,,,,,,,,,,,,,,,,,,,,,,,,,,,,,,543.9899060726166,None,544.9783799648285,None,1,1,0.7569918632507324,544.9783799648285,None,8002,001,03,2021_Nov_04_1559,task-switching-replication,2021.2.3,59.99731075896676,
1,14,experiment,03,standing,switch,incongruant,solid,square,blue,stimuli/solid-rectangle.png,stimuli/blue-square.png,2,,,,,,,,,,,,,,,,,,,,,,,,,0,0,0,0,0,0,0,0,0,13,13,13,,,,,,,,,,,,,,,,,,,,,,,,,,,,,,,,,,,,,,,,,,,,,,,,,,,,,,,,,,,,,,,1636060089.2166824,,,,,,,,,,547.8378751277924,None,,,,,,,,,,,,,,,,,,,,,,,,,,,,,,,,,,,,,,,,,,546.1185460090637,None,547.1072270870209,None,2,1,0.5868740081787109,547.1072270870209,None,8002,001,03,2021_Nov_04_1559,task-switching-replication,2021.2.3,59.99731075896676,
1,15,experiment,03,standing,noswitch,congruant,solid,triangle,blue,stimuli/solid-rectangle.png,stimuli/blue-triangle.png,2,,,,,,,,,,,,,,,,,,,,,,,,,0,0,0,0,0,0,0,0,0,14,14,14,,,,,,,,,,,,,,,,,,,,,,,,,,,,,,,,,,,,,,,,,,,,,,,,,,,,,,,,,,,,,,,1636060091.404089,,,,,,,,,,550.0257351398468,None,,,,,,,,,,,,,,,,,,,,,,,,,,,,,,,,,,,,,,,,,,548.0674221515656,None,549.0582330226898,None,2,1,0.8429610729217529,549.0582330226898,None,8002,001,03,2021_Nov_04_1559,task-switching-replication,2021.2.3,59.99731075896676,
1,16,experiment,03,standing,switch,incongruant,dashed,triangle,yellow,stimuli/dashed-rectangle.png,stimuli/yellow-triangle.png,1,,,,,,,,,,,,,,,,,,,,,,,,,0,0,0,0,0,0,0,0,0,15,15,15,,,,,,,,,,,,,,,,,,,,,,,,,,,,,,,,,,,,,,,,,,,,,,,,,,,,,,,,,,,,,,,1636060093.1195617,,,,,,,,,,551.7406489849091,None,,,,,,,,,,,,,,,,,,,,,,,,,,,,,,,,,,,,,,,,,,550.2546560764313,None,551.2436521053314,None,1,1,0.35846590995788574,551.2436521053314,None,8002,001,03,2021_Nov_04_1559,task-switching-replication,2021.2.3,59.99731075896676,
1,17,experiment,03,standing,noswitch,congruant,dashed,triangle,yellow,stimuli/dashed-rectangle.png,stimuli/yellow-triangle.png,1,,,,,,,,,,,,,,,,,,,,,,,,,0,0,0,0,0,0,0,0,0,16,16,16,,,,,,,,,,,,,,,,,,,,,,,,,,,,,,,,,,,,,,,,,,,,,,,,,,,,,,,,,,,,,,,1636060094.8303576,,,,,,,,,,553.4522049427032,None,,,,,,,,,,,,,,,,,,,,,,,,,,,,,,,,,,,,,,,,,,551.9703681468964,None,552.959291934967,None,1,1,0.36867499351501465,552.959291934967,None,8002,001,03,2021_Nov_04_1559,task-switching-replication,2021.2.3,59.99731075896676,
1,18,experiment,03,standing,noswitch,incongruant,dashed,square,blue,stimuli/dashed-rectangle.png,stimuli/blue-square.png,2,,,,,,,,,,,,,,,,,,,,,,,,,0,0,0,0,0,0,0,0,0,17,17,17,,,,,,,,,,,,,,,,,,,,,,,,,,,,,,,,,,,,,,,,,,,,,,,,,,,,,,,,,,,,,,,1636060096.7785578,,,,,,,,,,555.3998401165009,None,,,,,,,,,,,,,,,,,,,,,,,,,,,,,,,,,,,,,,,,,,553.6812429428101,None,554.6704890727997,None,2,1,0.618812084197998,554.6704890727997,None,8002,001,03,2021_Nov_04_1559,task-switching-replication,2021.2.3,59.99731075896676,
1,19,experiment,03,standing,noswitch,incongruant,dashed,triangle,yellow,stimuli/dashed-rectangle.png,stimuli/yellow-triangle.png,1,,,,,,,,,,,,,,,,,,,,,,,,,0,0,0,0,0,0,0,0,0,18,18,18,,,,,,,,,,,,,,,,,,,,,,,,,,,,,,,,,,,,,,,,,,,,,,,,,,,,,,,,,,,,,,,1636060098.6118374,,,,,,,,,,557.2328231334686,None,,,,,,,,,,,,,,,,,,,,,,,,,,,,,,,,,,,,,,,,,,555.6288990974426,None,556.6185040473938,None,1,1,0.4708831310272217,556.6185040473938,None,8002,001,03,2021_Nov_04_1559,task-switching-replication,2021.2.3,59.99731075896676,
1,20,experiment,03,standing,switch,incongruant,solid,square,blue,stimuli/solid-rectangle.png,stimuli/blue-square.png,2,,,,,,,,,,,,,,,,,,,,,,,,,0,0,0,0,0,0,0,0,0,19,19,19,,,,,,,,,,,,,,,,,,,,,,,,,,,,,,,,,,,,,,,,,,,,,,,,,,,,,,,,,,,,,,,1636060100.4413092,,,,,,,,,,559.1238701343536,None,,,,,,,,,,,,,,,,,,,,,,,,,,,,,,,,,,,,,,,,,,557.4621660709381,None,558.4517750740051,None,2,1,0.505079984664917,558.4517750740051,None,8002,001,03,2021_Nov_04_1559,task-switching-replication,2021.2.3,59.99731075896676,
1,21,experiment,03,standing,noswitch,congruant,solid,triangle,blue,stimuli/solid-rectangle.png,stimuli/blue-triangle.png,2,,,,,,,,,,,,,,,,,,,,,,,,,0,0,0,0,0,0,0,0,0,20,20,20,,,,,,,,,,,,,,,,,,,,,,,,,,,,,,,,,,,,,,,,,,,,,,,,,,,,,,,,,,,,,,,1636060102.3275251,,,,,,,,,,560.9492180347443,None,,,,,,,,,,,,,,,,,,,,,,,,,,,,,,,,,,,,,,,,,,559.2886700630188,None,560.2784550189972,None,2,1,0.5446009635925293,560.2784550189972,None,8002,001,03,2021_Nov_04_1559,task-switching-replication,2021.2.3,59.99731075896676,
1,22,experiment,03,standing,noswitch,congruant,solid,square,blue,stimuli/solid-rectangle.png,stimuli/blue-square.png,2,,,,,,,,,,,,,,,,,,,,,,,,,0,0,0,0,0,0,0,0,0,21,21,21,,,,,,,,,,,,,,,,,,,,,,,,,,,,,,,,,,,,,,,,,,,,,,,,,,,,,,,,,,,,,,,1636060104.038958,,,,,,,,,,562.6607911586761,None,,,,,,,,,,,,,,,,,,,,,,,,,,,,,,,,,,,,,,,,,,561.1785409450531,None,562.1676080226898,None,2,1,0.38845014572143555,562.1676080226898,None,8002,001,03,2021_Nov_04_1559,task-switching-replication,2021.2.3,59.99731075896676,
1,23,experiment,03,standing,switch,incongruant,dashed,triangle,yellow,stimuli/dashed-rectangle.png,stimuli/yellow-triangle.png,1,,,,,,,,,,,,,,,,,,,,,,,,,0,0,0,0,0,0,0,0,0,22,22,22,,,,,,,,,,,,,,,,,,,,,,,,,,,,,,,,,,,,,,,,,,,,,,,,,,,,,,,,,,,,,,,1636060105.8719976,,,,,,,,,,564.4932610988617,None,,,,,,,,,,,,,,,,,,,,,,,,,,,,,,,,,,,,,,,,,,562.8898940086365,None,563.878762960434,None,1,1,0.4660320281982422,563.878762960434,None,8002,001,03,2021_Nov_04_1559,task-switching-replication,2021.2.3,59.99731075896676,
1,24,experiment,03,standing,switch,congruant,solid,triangle,yellow,stimuli/solid-rectangle.png,stimuli/yellow-triangle.png,1,,,,,,,,,,,,,,,,,,,,,,,,,0,0,0,0,0,0,0,0,0,23,23,23,,,,,,,,,,,,,,,,,,,,,,,,,,,,,,,,,,,,,,,,,,,,,,,,,,,,,,,,,,,,,,,1636060107.702836,,,,,,,,,,566.3248519897461,None,,,,,,,,,,,,,,,,,,,,,,,,,,,,,,,,,,,,,,,,,,564.7235560417175,None,565.7131810188293,None,1,1,0.49431800842285156,565.7131810188293,None,8002,001,03,2021_Nov_04_1559,task-switching-replication,2021.2.3,59.99731075896676,
1,25,experiment,03,standing,noswitch,congruant,solid,triangle,yellow,stimuli/solid-rectangle.png,stimuli/yellow-triangle.png,1,,,,,,,,,,,,,,,,,,,,,,,,,0,0,0,0,0,0,0,0,0,24,24,24,,,,,,,,,,,,,,,,,,,,,,,,,,,,,,,,,,,,,,,,,,,,,,,,,,,,,,,,,,,,,,,1636060109.592692,,,,,,,,,,568.2145450115204,None,,,,,,,,,,,,,,,,,,,,,,,,,,,,,,,,,,,,,,,,,,566.5539970397949,None,567.5436120033264,None,1,1,0.5563690662384033,567.5436120033264,None,8002,001,03,2021_Nov_04_1559,task-switching-replication,2021.2.3,59.99731075896676,
1,26,experiment,03,standing,switch,incongruant,dashed,square,blue,stimuli/dashed-rectangle.png,stimuli/blue-square.png,2,,,,,,,,,,,,,,,,,,,,,,,,,0,0,0,0,0,0,0,0,0,25,25,25,,,,,,,,,,,,,,,,,,,,,,,,,,,,,,,,,,,,,,,,,,,,,,,,,,,,,,,,,,,,,,,1636060111.4866478,,,,,,,,,,570.107565164566,None,,,,,,,,,,,,,,,,,,,,,,,,,,,,,,,,,,,,,,,,,,568.4438400268555,None,569.4334850311279,None,2,1,0.5452349185943604,569.4334850311279,None,8002,001,03,2021_Nov_04_1559,task-switching-replication,2021.2.3,59.99731075896676,
1,27,experiment,03,standing,switch,congruant,solid,square,blue,stimuli/solid-rectangle.png,stimuli/blue-square.png,2,,,,,,,,,,,,,,,,,,,,,,,,,0,0,0,0,0,0,0,0,0,26,26,26,,,,,,,,,,,,,,,,,,,,,,,,,,,,,,,,,,,,,,,,,,,,,,,,,,,,,,,,,,,,,,,1636060113.3162637,,,,,,,,,,571.9379980564117,None,,,,,,,,,,,,,,,,,,,,,,,,,,,,,,,,,,,,,,,,,,570.336620092392,None,571.3258130550385,None,2,1,0.4783589839935303,571.3258130550385,None,8002,001,03,2021_Nov_04_1559,task-switching-replication,2021.2.3,59.99731075896676,
1,28,experiment,03,standing,switch,incongruant,dashed,triangle,yellow,stimuli/dashed-rectangle.png,stimuli/yellow-triangle.png,1,,,,,,,,,,,,,,,,,,,,,,,,,0,0,0,0,0,0,0,0,0,27,27,27,,,,,,,,,,,,,,,,,,,,,,,,,,,,,,,,,,,,,,,,,,,,,,,,,,,,,,,,,,,,,,,1636060115.800965,,,,,,,,,,574.4220621585846,None,,,,,,,,,,,,,,,,,,,,,,,,,,,,,,,,,,,,,,,,,,572.1676890850067,None,573.1565761566162,None,1,1,1.1068239212036133,573.1565761566162,None,8002,001,03,2021_Nov_04_1559,task-switching-replication,2021.2.3,59.99731075896676,
1,29,experiment,03,standing,noswitch,incongruant,dashed,square,blue,stimuli/dashed-rectangle.png,stimuli/blue-square.png,2,,,,,,,,,,,,,,,,,,,,,,,,,0,0,0,0,0,0,0,0,0,28,28,28,,,,,,,,,,,,,,,,,,,,,,,,,,,,,,,,,,,,,,,,,,,,,,,,,,,,,,,,,,,,,,,1636060117.6336317,,,,,,,,,,576.2545969486237,None,,,,,,,,,,,,,,,,,,,,,,,,,,,,,,,,,,,,,,,,,,574.6517579555511,None,575.6411170959473,None,2,1,0.4797818660736084,575.6411170959473,None,8002,001,03,2021_Nov_04_1559,task-switching-replication,2021.2.3,59.99731075896676,
1,30,experiment,03,standing,noswitch,congruant,dashed,square,blue,stimuli/dashed-rectangle.png,stimuli/blue-square.png,2,,,,,,,,,,,,,,,,,,,,,,,,,0,0,0,0,0,0,0,0,0,29,29,29,,,,,,,,,,,,,,,,,,,,,,,,,,,,,,,,,,,,,,,,,,,,,,,,,,,,,,,,,,,,,,,1636060119.4638965,,,,,,,,,,578.0858380794525,None,,,,,,,,,,,,,,,,,,,,,,,,,,,,,,,,,,,,,,,,,,576.4845471382141,None,577.4738421440125,None,2,1,0.4741950035095215,577.4738421440125,None,8002,001,03,2021_Nov_04_1559,task-switching-replication,2021.2.3,59.99731075896676,
1,31,experiment,03,standing,noswitch,incongruant,dashed,triangle,blue,stimuli/dashed-rectangle.png,stimuli/blue-triangle.png,1,,,,,,,,,,,,,,,,,,,,,,,,,0,0,0,0,0,0,0,0,0,30,30,30,,,,,,,,,,,,,,,,,,,,,,,,,,,,,,,,,,,,,,,,,,,,,,,,,,,,,,,,,,,,,,,1636060121.2360198,,,,,,,,,,579.8578059673309,None,,,,,,,,,,,,,,,,,,,,,,,,,,,,,,,,,,,,,,,,,,578.3153929710388,None,579.3053820133209,None,1,1,0.43680596351623535,579.3053820133209,None,8002,001,03,2021_Nov_04_1559,task-switching-replication,2021.2.3,59.99731075896676,
1,32,experiment,03,standing,switch,congruant,solid,triangle,yellow,stimuli/solid-rectangle.png,stimuli/yellow-triangle.png,1,,,,,,,,,,,,,,,,,,,,,,,,,0,0,0,0,0,0,0,0,0,31,31,31,,,,,,,,,,,,,,,,,,,,,,,,,,,,,,,,,,,,,,,,,,,,,,,,,,,,,,,,,,,,,,,1636060123.12544,,,,,,,,,,581.7470381259918,None,,,,,,,,,,,,,,,,,,,,,,,,,,,,,,,,,,,,,,,,,,580.0870389938354,None,581.0764780044556,None,1,1,0.5483410358428955,581.0764780044556,None,8002,001,03,2021_Nov_04_1559,task-switching-replication,2021.2.3,59.99731075896676,
1,33,experiment,03,standing,switch,congruant,dashed,triangle,blue,stimuli/dashed-rectangle.png,stimuli/blue-triangle.png,1,,,,,,,,,,,,,,,,,,,,,,,,,0,0,0,0,0,0,0,0,0,32,32,32,,,,,,,,,,,,,,,,,,,,,,,,,,,,,,,,,,,,,,,,,,,,,,,,,,,,,,,,,,,,,,,1636060125.1330867,,,,,,,,,,583.7549860477448,None,,,,,,,,,,,,,,,,,,,,,,,,,,,,,,,,,,,,,,,,,,581.9764909744263,None,582.965528011322,None,1,1,0.6743631362915039,582.965528011322,None,8002,001,03,2021_Nov_04_1559,task-switching-replication,2021.2.3,59.99731075896676,
1,34,experiment,03,standing,switch,congruant,solid,square,yellow,stimuli/solid-rectangle.png,stimuli/yellow-square.png,1,,,,,,,,,,,,,,,,,,,,,,,,,0,0,0,0,0,0,0,0,0,33,33,33,,,,,,,,,,,,,,,,,,,,,,,,,,,,,,,,,,,,,,,,,,,,,,,,,,,,,,,,,,,,,,,1636060126.962977,,,,,,,,,,585.5848801136017,None,,,,,,,,,,,,,,,,,,,,,,,,,,,,,,,,,,,,,,,,,,583.9843640327454,None,584.9733719825745,None,1,1,0.4614241123199463,584.9733719825745,None,8002,001,03,2021_Nov_04_1559,task-switching-replication,2021.2.3,59.99731075896676,
1,35,experiment,03,standing,noswitch,incongruant,solid,triangle,blue,stimuli/solid-rectangle.png,stimuli/blue-triangle.png,2,,,,,,,,,,,,,,,,,,,,,,,,,0,0,0,0,0,0,0,0,0,34,34,34,,,,,,,,,,,,,,,,,,,,,,,,,,,,,,,,,,,,,,,,,,,,,,,,,,,,,,,,,,,,,,,1636060129.2077408,,,,,,,,,,587.8286421298981,None,,,,,,,,,,,,,,,,,,,,,,,,,,,,,,,,,,,,,,,,,,585.8138959407806,None,586.8029799461365,None,2,1,0.891995906829834,586.8029799461365,None,8002,001,03,2021_Nov_04_1559,task-switching-replication,2021.2.3,59.99731075896676,
1,36,experiment,03,standing,noswitch,incongruant,solid,square,yellow,stimuli/solid-rectangle.png,stimuli/yellow-square.png,1,,,,,,,,,,,,,,,,,,,,,,,,,0,0,0,0,0,0,0,0,0,35,35,35,,,,,,,,,,,,,,,,,,,,,,,,,,,,,,,,,,,,,,,,,,,,,,,,,,,,,,,,,,,,,,,1636060131.1577547,,,,,,,,,,589.7788381576538,None,,,,,,,,,,,,,,,,,,,,,,,,,,,,,,,,,,,,,,,,,,588.057755947113,None,589.0470190048218,None,1,1,0.5731759071350098,589.0470190048218,None,8002,001,03,2021_Nov_04_1559,task-switching-replication,2021.2.3,59.99731075896676,
1,37,experiment,03,standing,noswitch,congruant,solid,triangle,yellow,stimuli/solid-rectangle.png,stimuli/yellow-triangle.png,1,,,,,,,,,,,,,,,,,,,,,,,,,0,0,0,0,0,0,0,0,0,36,36,36,,,,,,,,,,,,,,,,,,,,,,,,,,,,,,,,,,,,,,,,,,,,,,,,,,,,,,,,,,,,,,,1636060133.0465467,,,,,,,,,,591.6683461666107,None,,,,,,,,,,,,,,,,,,,,,,,,,,,,,,,,,,,,,,,,,,590.0079441070557,None,590.9974579811096,None,1,1,0.513329029083252,590.9974579811096,None,8002,001,03,2021_Nov_04_1559,task-switching-replication,2021.2.3,59.99731075896676,
1,38,experiment,03,standing,noswitch,incongruant,solid,square,blue,stimuli/solid-rectangle.png,stimuli/blue-square.png,2,,,,,,,,,,,,,,,,,,,,,,,,,0,0,0,0,0,0,0,0,0,37,37,37,,,,,,,,,,,,,,,,,,,,,,,,,,,,,,,,,,,,,,,,,,,,,,,,,,,,,,,,,,,,,,,1636060134.8178263,,,,,,,,,,593.4389109611511,None,,,,,,,,,,,,,,,,,,,,,,,,,,,,,,,,,,,,,,,,,,591.8974871635437,None,592.8864650726318,None,2,1,0.40384387969970703,592.8864650726318,None,8002,001,03,2021_Nov_04_1559,task-switching-replication,2021.2.3,59.99731075896676,
1,39,experiment,03,standing,switch,congruant,dashed,square,yellow,stimuli/dashed-rectangle.png,stimuli/yellow-square.png,2,,,,,,,,,,,,,,,,,,,,,,,,,0,0,0,0,0,0,0,0,0,38,38,38,,,,,,,,,,,,,,,,,,,,,,,,,,,,,,,,,,,,,,,,,,,,,,,,,,,,,,,,,,,,,,,1636060136.6480186,,,,,,,,,,595.2698490619659,None,,,,,,,,,,,,,,,,,,,,,,,,,,,,,,,,,,,,,,,,,,593.6684601306915,None,594.6579821109772,None,2,1,0.46190905570983887,594.6579821109772,None,8002,001,03,2021_Nov_04_1559,task-switching-replication,2021.2.3,59.99731075896676,
1,40,experiment,03,standing,switch,congruant,solid,triangle,blue,stimuli/solid-rectangle.png,stimuli/blue-triangle.png,2,,,,,,,,,,,,,,,,,,,,,,,,,0,0,0,0,0,0,0,0,0,39,39,39,,,,,,,,,,,,,,,,,,,,,,,,,,,,,,,,,,,,,,,,,,,,,,,,,,,,,,,,,,,,,,,1636060138.657474,,,,,,,,,,597.2792010307312,None,,,,,,,,,,,,,,,,,,,,,,,,,,,,,,,,,,,,,,,,,,595.4992170333862,None,596.4896650314331,None,2,1,0.649346113204956,596.4896650314331,None,8002,001,03,2021_Nov_04_1559,task-switching-replication,2021.2.3,59.99731075896676,
1,41,experiment,03,standing,switch,incongruant,dashed,triangle,yellow,stimuli/dashed-rectangle.png,stimuli/yellow-triangle.png,1,,,,,,,,,,,,,,,,,,,,,,,,,0,0,0,0,0,0,0,0,0,40,40,40,,,,,,,,,,,,,,,,,,,,,,,,,,,,,,,,,,,,,,,,,,,,,,,,,,,,,,,,,,,,,,,1636060140.4284332,,,,,,,,,,599.0505981445312,None,,,,,,,,,,,,,,,,,,,,,,,,,,,,,,,,,,,,,,,,,,597.5083010196686,None,598.4978370666504,None,1,1,0.44269585609436035,598.4978370666504,None,8002,001,03,2021_Nov_04_1559,task-switching-replication,2021.2.3,59.99731075896676,
1,42,experiment,03,standing,noswitch,incongruant,dashed,square,yellow,stimuli/dashed-rectangle.png,stimuli/yellow-square.png,2,,,,,,,,,,,,,,,,,,,,,,,,,0,0,0,0,0,0,0,0,0,41,41,41,,,,,,,,,,,,,,,,,,,,,,,,,,,,,,,,,,,,,,,,,,,,,,,,,,,,,,,,,,,,,,,1636060142.3202045,,,,,,,,,,600.9413731098175,None,,,,,,,,,,,,,,,,,,,,,,,,,,,,,,,,,,,,,,,,,,599.2798080444336,None,600.270250082016,None,2,1,0.5375819206237793,600.270250082016,None,8002,001,03,2021_Nov_04_1559,task-switching-replication,2021.2.3,59.99731075896676,
1,43,experiment,03,standing,noswitch,incongruant,dashed,triangle,blue,stimuli/dashed-rectangle.png,stimuli/blue-triangle.png,1,,,,,,,,,,,,,,,,,,,,,,,,,0,0,0,0,0,0,0,0,0,42,42,42,,,,,,,,,,,,,,,,,,,,,,,,,,,,,,,,,,,,,,,,,,,,,,,,,,,,,,,,,,,,,,,1636060144.093615,,,,,,,,,,602.7148339748383,None,,,,,,,,,,,,,,,,,,,,,,,,,,,,,,,,,,,,,,,,,,601.1708941459656,None,602.1601059436798,None,1,1,0.4009120464324951,602.1601059436798,None,8002,001,03,2021_Nov_04_1559,task-switching-replication,2021.2.3,59.99731075896676,
1,44,experiment,03,standing,noswitch,incongruant,dashed,square,yellow,stimuli/dashed-rectangle.png,stimuli/yellow-square.png,2,,,,,,,,,,,,,,,,,,,,,,,,,0,0,0,0,0,0,0,0,0,43,43,43,,,,,,,,,,,,,,,,,,,,,,,,,,,,,,,,,,,,,,,,,,,,,,,,,,,,,,,,,,,,,,,1636060145.8663187,,,,,,,,,,604.4875581264496,None,,,,,,,,,,,,,,,,,,,,,,,,,,,,,,,,,,,,,,,,,,602.9441959857941,None,603.9337849617004,None,2,1,0.41464996337890625,603.9337849617004,None,8002,001,03,2021_Nov_04_1559,task-switching-replication,2021.2.3,59.99731075896676,
1,45,experiment,03,standing,switch,incongruant,solid,square,yellow,stimuli/solid-rectangle.png,stimuli/yellow-square.png,1,,,,,,,,,,,,,,,,,,,,,,,,,0,0,0,0,0,0,0,0,0,44,44,44,,,,,,,,,,,,,,,,,,,,,,,,,,,,,,,,,,,,,,,,,,,,,,,,,,,,,,,,,,,,,,,1636060147.695646,,,,,,,,,,606.3165991306305,None,,,,,,,,,,,,,,,,,,,,,,,,,,,,,,,,,,,,,,,,,,604.7171721458435,None,605.7057240009308,None,1,1,0.4771740436553955,605.7057240009308,None,8002,001,03,2021_Nov_04_1559,task-switching-replication,2021.2.3,59.99731075896676,
1,46,experiment,03,standing,switch,incongruant,dashed,square,yellow,stimuli/dashed-rectangle.png,stimuli/yellow-square.png,2,,,,,,,,,,,,,,,,,,,,,,,,,0,0,0,0,0,0,0,0,0,45,45,45,,,,,,,,,,,,,,,,,,,,,,,,,,,,,,,,,,,,,,,,,,,,,,,,,,,,,,,,,,,,,,,1636060149.4667735,,,,,,,,,,608.0885090827942,None,,,,,,,,,,,,,,,,,,,,,,,,,,,,,,,,,,,,,,,,,,606.5457530021667,None,607.5356941223145,None,2,1,0.438140869140625,607.5356941223145,None,8002,001,03,2021_Nov_04_1559,task-switching-replication,2021.2.3,59.99731075896676,
1,47,experiment,03,standing,noswitch,congruant,dashed,square,blue,stimuli/dashed-rectangle.png,stimuli/blue-square.png,2,,,,,,,,,,,,,,,,,,,,,,,,,0,0,0,0,0,0,0,0,0,46,46,46,,,,,,,,,,,,,,,,,,,,,,,,,,,,,,,,,,,,,,,,,,,,,,,,,,,,,,,,,,,,,,,1636060151.1792462,,,,,,,,,,609.8010981082916,None,,,,,,,,,,,,,,,,,,,,,,,,,,,,,,,,,,,,,,,,,,608.3180060386658,None,609.3086240291595,None,2,1,0.3821721076965332,609.3086240291595,None,8002,001,03,2021_Nov_04_1559,task-switching-replication,2021.2.3,59.99731075896676,
1,48,experiment,03,standing,noswitch,congruant,dashed,square,blue,stimuli/dashed-rectangle.png,stimuli/blue-square.png,2,,,,,,,,,,,,,,,,,,,,,,,,,0,0,0,0,0,0,0,0,0,47,47,47,,,,,,,,,,,,,,,,,,,,,,,,,,,,,,,,,,,,,,,,,,,,,,,,,,,,,,,,,,,,,,,1636060152.8328645,,,,,,,,,,611.4547109603882,None,,,,,,,,,,,,,,,,,,,,,,,,,,,,,,,,,,,,,,,,,,610.0303521156311,None,611.0206580162048,None,2,1,0.33113813400268555,611.0206580162048,None,8002,001,03,2021_Nov_04_1559,task-switching-replication,2021.2.3,59.99731075896676,
1,49,experiment,03,standing,switch,incongruant,solid,square,yellow,stimuli/solid-rectangle.png,stimuli/yellow-square.png,1,,,,,,,,,,,,,,,,,,,,,,,,,0,0,0,0,0,0,0,0,0,48,48,48,,,,,,,,,,,,,,,,,,,,,,,,,,,,,,,,,,,,,,,,,,,,,,,,,,,,,,,,,,,,,,,1636060154.6087863,,,,,,,,,,613.2300169467926,None,,,,,,,,,,,,,,,,,,,,,,,,,,,,,,,,,,,,,,,,,,611.6842541694641,None,612.6735031604767,None,1,1,0.41256213188171387,612.6735031604767,None,8002,001,03,2021_Nov_04_1559,task-switching-replication,2021.2.3,59.99731075896676,
,,,03,,,,,,,,,,,,,,,,,,,,,,,,,,,,,,,,,,0,0,0,0,0,0,0,0,,,,,,,,,,,,,,,,,,,,,,,,,,,,,,,,,,,,,,,,,,,,,,,,,,,,,,,,,,,,,,,,,,,,,,,,,,,,,,,,,,,,,,,,,,,,,,,,,,,,,,,,,,,,,,,,,,,,,,,,,,,,,,,,,8002,001,03,2021_Nov_04_1559,task-switching-replication,2021.2.3,59.99731075896676,
2,1,experiment,03,standing,buffer,buffer,solid,square,blue,stimuli/solid-rectangle.png,stimuli/blue-square.png,2,,,,,,,,,,,,,,,,,,,,,,,,,0,0,0,0,1,0,1,0,0,0,0,0,,,,,,,,,,,,,,,,,,,,,,,,,,,,,,,,,,,,,,,,,,,,,,,,,,,,,,,,,,,,,,,1636060181.4441068,,,,,,,,,,640.0665371417999,None,,,,,,,,,,,,,,,,,,,,,,,,,,,,,,613.4599349498749,None,2,21.24619197845459,613.4599349498749,None,634.8008091449738,None,2,3.412968873977661,634.8008091449738,None,638.3452489376068,None,639.3355770111084,None,2,1,0.5991308689117432,639.3355770111084,None,8002,001,03,2021_Nov_04_1559,task-switching-replication,2021.2.3,59.99731075896676,
2,2,experiment,03,standing,switch,congruant,dashed,square,blue,stimuli/dashed-rectangle.png,stimuli/blue-square.png,2,,,,,,,,,,,,,,,,,,,,,,,,,0,0,0,0,1,0,1,0,0,1,1,1,,,,,0,0,0,0,,,,,,,,,,,,,,,,,,,,,,,,,,,,,,,,,,,,,,,,,,,,,,,,,,,,,,,1636060183.6924224,,,,,,,,,,,,642.2860555648804,643.3080790042877,642.3183341026306,None,,,,,,,,,,,,,,,,,,,,,,,,,,,,,,,,,,,,,,640.2960970401764,None,641.2865581512451,None,1,0,0.9029579162597656,641.2865581512451,None,8002,001,03,2021_Nov_04_1559,task-switching-replication,2021.2.3,59.99731075896676,
2,2,experiment,03,standing,switch,congruant,dashed,square,blue,stimuli/dashed-rectangle.png,stimuli/blue-square.png,2,,,,,,,,,,,,,,,,,,,,,,,,,0,0,0,0,1,0,1,0,0,1,1,1,,,,,,,,,,,,,,,,,,,,,,,,,,,,,,,,,,,,,,,,,,,,,,,,,,,,,,,,,,,,,,,,,,,,,,,,,647.3147251605988,None,,,,,,,,,,,,,,,,,,,,,,,,,,,,,,,,,,,,,,,,,,,,,,,,,,,8002,001,03,2021_Nov_04_1559,task-switching-replication,2021.2.3,59.99731075896676,
2,3,experiment,03,standing,noswitch,incongruant,dashed,triangle,blue,stimuli/dashed-rectangle.png,stimuli/blue-triangle.png,1,,,,,,,,,,,,,,,,,,,,,,,,,0,0,0,0,1,0,1,0,0,2,2,2,,,,,,,,,,,,,,,,,,,,,,,,,,,,,,,,,,,,,,,,,,,,,,,,,,,,,,,,,,,,,,,1636060190.469044,,,,,,,,,,649.0901110172272,None,,,,,,,,,,,,,,,,,,,,,,,,,,,,,,,,,,,,,,,,,,647.5441420078278,None,648.5346081256866,None,1,1,0.4119088649749756,648.5346081256866,None,8002,001,03,2021_Nov_04_1559,task-switching-replication,2021.2.3,59.99731075896676,
2,4,experiment,03,standing,noswitch,congruant,dashed,triangle,yellow,stimuli/dashed-rectangle.png,stimuli/yellow-triangle.png,1,,,,,,,,,,,,,,,,,,,,,,,,,0,0,0,0,1,0,1,0,0,3,3,3,,,,,,,,,,,,,,,,,,,,,,,,,,,,,,,,,,,,,,,,,,,,,,,,,,,,,,,,,,,,,,,1636060192.2403226,,,,,,,,,,650.8621499538422,None,,,,,,,,,,,,,,,,,,,,,,,,,,,,,,,,,,,,,,,,,,649.3196370601654,None,650.309249162674,None,1,1,0.42932820320129395,650.309249162674,None,8002,001,03,2021_Nov_04_1559,task-switching-replication,2021.2.3,59.99731075896676,
2,5,experiment,03,standing,noswitch,congruant,dashed,triangle,blue,stimuli/dashed-rectangle.png,stimuli/blue-triangle.png,1,,,,,,,,,,,,,,,,,,,,,,,,,0,0,0,0,1,0,1,0,0,4,4,4,,,,,,,,,,,,,,,,,,,,,,,,,,,,,,,,,,,,,,,,,,,,,,,,,,,,,,,,,,,,,,,1636060193.9538584,,,,,,,,,,652.5756831169128,None,,,,,,,,,,,,,,,,,,,,,,,,,,,,,,,,,,,,,,,,,,651.0919790267944,None,652.0826060771942,None,1,1,0.3909778594970703,652.0826060771942,None,8002,001,03,2021_Nov_04_1559,task-switching-replication,2021.2.3,59.99731075896676,
2,6,experiment,03,standing,noswitch,incongruant,dashed,square,yellow,stimuli/dashed-rectangle.png,stimuli/yellow-square.png,2,,,,,,,,,,,,,,,,,,,,,,,,,0,0,0,0,1,0,1,0,0,5,5,5,,,,,,,,,,,,,,,,,,,,,,,,,,,,,,,,,,,,,,,,,,,,,,,,,,,,,,,,,,,,,,,1636060195.7876055,,,,,,,,,,654.4086711406708,None,,,,,,,,,,,,,,,,,,,,,,,,,,,,,,,,,,,,,,,,,,652.8051121234894,None,653.7947330474854,None,2,1,0.48984789848327637,653.7947330474854,None,8002,001,03,2021_Nov_04_1559,task-switching-replication,2021.2.3,59.99731075896676,
2,7,experiment,03,standing,switch,congruant,solid,square,blue,stimuli/solid-rectangle.png,stimuli/blue-square.png,2,,,,,,,,,,,,,,,,,,,,,,,,,0,0,0,0,1,0,1,0,0,6,6,6,0,0,0,0,,,,,,,,,,,,,,,,,,,,,,,,,,,,,,,,,,,,,,,,,,,,,,,,,,,,,,,,,,,1636060197.8557618,,,,,,,,,,,,,,,,656.4494075775146,657.5006351470947,656.481281042099,None,,,,,,,,,,,,,,,,,,,,,,,,,,,,,,,,,,654.6387560367584,None,655.6275780200958,None,1,0,0.6856629848480225,655.6275780200958,None,8002,001,03,2021_Nov_04_1559,task-switching-replication,2021.2.3,59.99731075896676,
2,7,experiment,03,standing,switch,congruant,solid,square,blue,stimuli/solid-rectangle.png,stimuli/blue-square.png,2,,,,,,,,,,,,,,,,,,,,,,,,,0,0,0,0,1,0,1,0,0,6,6,6,,,,,,,,,,,,,,,,,,,,,,,,,,,,,,,,,,,,,,,,,,,,,,,,,,,,,,,,,,,,,,,,,,,,,,,,,661.5080180168152,None,,,,,,,,,,,,,,,,,,,,,,,,,,,,,,,,,,,,,,,,,,,,,,,,,,,8002,001,03,2021_Nov_04_1559,task-switching-replication,2021.2.3,59.99731075896676,
2,8,experiment,03,standing,noswitch,incongruant,solid,square,yellow,stimuli/solid-rectangle.png,stimuli/yellow-square.png,1,,,,,,,,,,,,,,,,,,,,,,,,,0,0,0,0,1,0,1,0,0,7,7,7,0,0,0,0,,,,,,,,,,,,,,,,,,,,,,,,,,,,,,,,,,,,,,,,,,,,,,,,,,,,,,,,,,,1636060205.5770373,,,,,,,,,,,,,,,,664.1706976890564,665.2225480079651,664.2024929523468,None,,,,,,,,,,,,,,,,,,,,,,,,,,,,,,,,,,661.7048139572144,None,662.6936099529266,None,2,0,1.3608510494232178,662.6936099529266,None,8002,001,03,2021_Nov_04_1559,task-switching-replication,2021.2.3,59.99731075896676,
2,8,experiment,03,standing,noswitch,incongruant,solid,square,yellow,stimuli/solid-rectangle.png,stimuli/yellow-square.png,1,,,,,,,,,,,,,,,,,,,,,,,,,0,0,0,0,1,0,1,0,0,7,7,7,,,,,,,,,,,,,,,,,,,,,,,,,,,,,,,,,,,,,,,,,,,,,,,,,,,,,,,,,,,,,,,,,,,,,,,,,669.2272319793701,None,,,,,,,,,,,,,,,,,,,,,,,,,,,,,,,,,,,,,,,,,,,,,,,,,,,8002,001,03,2021_Nov_04_1559,task-switching-replication,2021.2.3,59.99731075896676,
2,9,experiment,03,standing,switch,incongruant,dashed,square,yellow,stimuli/dashed-rectangle.png,stimuli/yellow-square.png,2,,,,,,,,,,,,,,,,,,,,,,,,,0,0,0,0,1,0,1,0,0,8,8,8,,,,,0,0,0,0,,,,,,,,,,,,,,,,,,,,,,,,,,,,,,,,,,,,,,,,,,,,,,,,,,,,,,,1636060213.1759562,,,,,,,,,,,,671.7695846557617,672.7896029949188,671.8019530773163,None,,,,,,,,,,,,,,,,,,,,,,,,,,,,,,,,,,,,,,669.4240989685059,None,670.4140031337738,None,1,0,1.2446458339691162,670.4140031337738,None,8002,001,03,2021_Nov_04_1559,task-switching-replication,2021.2.3,59.99731075896676,
2,9,experiment,03,standing,switch,incongruant,dashed,square,yellow,stimuli/dashed-rectangle.png,stimuli/yellow-square.png,2,,,,,,,,,,,,,,,,,,,,,,,,,0,0,0,0,1,0,1,0,0,8,8,8,,,,,,,,,,,,,,,,,,,,,,,,,,,,,,,,,,,,,,,,,,,,,,,,,,,,,,,,,,,,,,,,,,,,,,,,,676.8323130607605,None,,,,,,,,,,,,,,,,,,,,,,,,,,,,,,,,,,,,,,,,,,,,,,,,,,,8002,001,03,2021_Nov_04_1559,task-switching-replication,2021.2.3,59.99731075896676,
2,10,experiment,03,standing,noswitch,incongruant,dashed,triangle,blue,stimuli/dashed-rectangle.png,stimuli/blue-triangle.png,1,,,,,,,,,,,,,,,,,,,,,,,,,0,0,0,0,1,0,1,0,0,9,9,9,,,,,,,,,,,,,,,,,,,,,,,,,,,,,,,,,,,,,,,,,,,,,,,,,,,,,,,,,,,,,,,1636060219.9520972,,,,,,,,,,678.573343038559,None,,,,,,,,,,,,,,,,,,,,,,,,,,,,,,,,,,,,,,,,,,677.0290470123291,None,678.0195109844208,None,1,1,0.40023207664489746,678.0195109844208,None,8002,001,03,2021_Nov_04_1559,task-switching-replication,2021.2.3,59.99731075896676,
2,11,experiment,03,standing,noswitch,congruant,dashed,triangle,blue,stimuli/dashed-rectangle.png,stimuli/blue-triangle.png,1,,,,,,,,,,,,,,,,,,,,,,,,,0,0,0,0,1,0,1,0,0,10,10,10,,,,,,,,,,,,,,,,,,,,,,,,,,,,,,,,,,,,,,,,,,,,,,,,,,,,,,,,,,,,,,,1636060221.6040142,,,,,,,,,,680.2259089946747,None,,,,,,,,,,,,,,,,,,,,,,,,,,,,,,,,,,,,,,,,,,678.8026821613312,None,679.7919809818268,None,1,1,0.31752586364746094,679.7919809818268,None,8002,001,03,2021_Nov_04_1559,task-switching-replication,2021.2.3,59.99731075896676,
2,12,experiment,03,standing,noswitch,congruant,dashed,triangle,yellow,stimuli/dashed-rectangle.png,stimuli/yellow-triangle.png,1,,,,,,,,,,,,,,,,,,,,,,,,,0,0,0,0,1,0,1,0,0,11,11,11,,,,,,,,,,,,,,,,,,,,,,,,,,,,,,,,,,,,,,,,,,,,,,,,,,,,,,,,,,,,,,,1636060223.4345198,,,,,,,,,,682.0564060211182,None,,,,,,,,,,,,,,,,,,,,,,,,,,,,,,,,,,,,,,,,,,680.4550659656525,None,681.4447040557861,None,1,1,0.46770691871643066,681.4447040557861,None,8002,001,03,2021_Nov_04_1559,task-switching-replication,2021.2.3,59.99731075896676,
2,13,experiment,03,standing,noswitch,congruant,dashed,triangle,yellow,stimuli/dashed-rectangle.png,stimuli/yellow-triangle.png,1,,,,,,,,,,,,,,,,,,,,,,,,,0,0,0,0,1,0,1,0,0,12,12,12,,,,,,,,,,,,,,,,,,,,,,,,,,,,,,,,,,,,,,,,,,,,,,,,,,,,,,,,,,,,,,,1636060225.14633,,,,,,,,,,683.7680130004883,None,,,,,,,,,,,,,,,,,,,,,,,,,,,,,,,,,,,,,,,,,,682.2863790988922,None,683.2751760482788,None,1,1,0.3592500686645508,683.2751760482788,None,8002,001,03,2021_Nov_04_1559,task-switching-replication,2021.2.3,59.99731075896676,
2,14,experiment,03,standing,switch,congruant,solid,square,yellow,stimuli/solid-rectangle.png,stimuli/yellow-square.png,1,,,,,,,,,,,,,,,,,,,,,,,,,0,0,0,0,1,0,1,0,0,13,13,13,,,,,,,,,,,,,,,,,,,,,,,,,,,,,,,,,,,,,,,,,,,,,,,,,,,,,,,,,,,,,,,1636060227.2133257,,,,,,,,,,685.8350551128387,None,,,,,,,,,,,,,,,,,,,,,,,,,,,,,,,,,,,,,,,,,,683.9972190856934,None,684.9866559505463,None,1,1,0.7045741081237793,684.9866559505463,None,8002,001,03,2021_Nov_04_1559,task-switching-replication,2021.2.3,59.99731075896676,
2,15,experiment,03,standing,noswitch,incongruant,solid,square,blue,stimuli/solid-rectangle.png,stimuli/blue-square.png,2,,,,,,,,,,,,,,,,,,,,,,,,,0,0,0,0,1,0,1,0,0,14,14,14,,,,,,,,,,,,,,,,,,,,,,,,,,,,,,,,,,,,,,,,,,,,,,,,,,,,,,,,,,,,,,,1636060229.1612906,,,,,,,,,,687.7831280231476,None,,,,,,,,,,,,,,,,,,,,,,,,,,,,,,,,,,,,,,,,,,686.0641760826111,None,687.0530769824982,None,2,1,0.6227540969848633,687.0530769824982,None,8002,001,03,2021_Nov_04_1559,task-switching-replication,2021.2.3,59.99731075896676,
2,16,experiment,03,standing,switch,congruant,dashed,square,yellow,stimuli/dashed-rectangle.png,stimuli/yellow-square.png,2,,,,,,,,,,,,,,,,,,,,,,,,,0,0,0,0,1,0,1,0,0,15,15,15,,,,,,,,,,,,,,,,,,,,,,,,,,,,,,,,,,,,,,,,,,,,,,,,,,,,,,,,,,,,,,,1636060230.9918387,,,,,,,,,,689.6136231422424,None,,,,,,,,,,,,,,,,,,,,,,,,,,,,,,,,,,,,,,,,,,688.0125350952148,None,689.0016739368439,None,2,1,0.4896891117095947,689.0016739368439,None,8002,001,03,2021_Nov_04_1559,task-switching-replication,2021.2.3,59.99731075896676,
2,17,experiment,03,standing,noswitch,congruant,dashed,square,yellow,stimuli/dashed-rectangle.png,stimuli/yellow-square.png,2,,,,,,,,,,,,,,,,,,,,,,,,,0,0,0,0,1,0,1,0,0,16,16,16,,,,,,,,,,,,,,,,,,,,,,,,,,,,,,,,,,,,,,,,,,,,,,,,,,,,,,,,,,,,,,,1636060232.8224506,,,,,,,,,,691.444041967392,None,,,,,,,,,,,,,,,,,,,,,,,,,,,,,,,,,,,,,,,,,,689.8432350158691,None,690.8328859806061,None,2,1,0.4796609878540039,690.8328859806061,None,8002,001,03,2021_Nov_04_1559,task-switching-replication,2021.2.3,59.99731075896676,
2,18,experiment,03,standing,switch,congruant,solid,triangle,blue,stimuli/solid-rectangle.png,stimuli/blue-triangle.png,2,,,,,,,,,,,,,,,,,,,,,,,,,0,0,0,0,1,0,1,0,0,17,17,17,,,,,,,,,,,,,,,,,,,,,,,,,,,,,,,,,,,,,,,,,,,,,,,,,,,,,,,,,,,,,,,1636060234.7116983,,,,,,,,,,693.3341679573059,None,,,,,,,,,,,,,,,,,,,,,,,,,,,,,,,,,,,,,,,,,,691.6735219955444,None,692.6628019809723,None,2,1,0.5656139850616455,692.6628019809723,None,8002,001,03,2021_Nov_04_1559,task-switching-replication,2021.2.3,59.99731075896676,
2,19,experiment,03,standing,switch,incongruant,dashed,triangle,yellow,stimuli/dashed-rectangle.png,stimuli/yellow-triangle.png,1,,,,,,,,,,,,,,,,,,,,,,,,,0,0,0,0,1,0,1,0,0,18,18,18,,,,,,,,,,,,,,,,,,,,,,,,,,,,,,,,,,,,,,,,,,,,,,,,,,,,,,,,,,,,,,,1636060236.4255767,,,,,,,,,,695.0475051403046,None,,,,,,,,,,,,,,,,,,,,,,,,,,,,,,,,,,,,,,,,,,693.5639491081238,None,694.5541870594025,None,1,1,0.3834850788116455,694.5541870594025,None,8002,001,03,2021_Nov_04_1559,task-switching-replication,2021.2.3,59.99731075896676,
2,20,experiment,03,standing,switch,incongruant,solid,square,blue,stimuli/solid-rectangle.png,stimuli/blue-square.png,2,,,,,,,,,,,,,,,,,,,,,,,,,0,0,0,0,1,0,1,0,0,19,19,19,,,,,,,,,,,,,,,,,,,,,,,,,,,,,,,,,,,,,,,,,,,,,,,,,,,,,,,,,,,,,,,1636060238.3805003,,,,,,,,,,697.0014250278473,None,,,,,,,,,,,,,,,,,,,,,,,,,,,,,,,,,,,,,,,,,,695.2764501571655,None,696.2661080360413,None,2,1,0.6104090213775635,696.2661080360413,None,8002,001,03,2021_Nov_04_1559,task-switching-replication,2021.2.3,59.99731075896676,
2,21,experiment,03,standing,noswitch,incongruant,solid,triangle,yellow,stimuli/solid-rectangle.png,stimuli/yellow-triangle.png,1,,,,,,,,,,,,,,,,,,,,,,,,,0,0,0,0,1,0,1,0,0,20,20,20,,,,,,,,,,,,,,,,,,,,,,,,,,,,,,,,,,,,,,,,,,,,,,,,,,,,,,,,,,,,,,,1636060240.0959852,,,,,,,,,,698.7173299789429,None,,,,,,,,,,,,,,,,,,,,,,,,,,,,,,,,,,,,,,,,,,697.2306261062622,None,698.2203550338745,None,1,1,0.3627970218658447,698.2203550338745,None,8002,001,03,2021_Nov_04_1559,task-switching-replication,2021.2.3,59.99731075896676,
2,22,experiment,03,standing,switch,incongruant,dashed,square,blue,stimuli/dashed-rectangle.png,stimuli/blue-square.png,2,,,,,,,,,,,,,,,,,,,,,,,,,0,0,0,0,1,0,1,0,0,21,21,21,,,,,0,0,0,0,,,,,,,,,,,,,,,,,,,,,,,,,,,,,,,,,,,,,,,,,,,,,,,,,,,,,,,1636060242.4599345,,,,,,,,,,,,701.053460597992,702.0755550861359,701.0868520736694,None,,,,,,,,,,,,,,,,,,,,,,,,,,,,,,,,,,,,,,698.9465379714966,None,699.9366390705109,None,1,0,1.0246140956878662,699.9366390705109,None,8002,001,03,2021_Nov_04_1559,task-switching-replication,2021.2.3,59.99731075896676,
2,22,experiment,03,standing,switch,incongruant,dashed,square,blue,stimuli/dashed-rectangle.png,stimuli/blue-square.png,2,,,,,,,,,,,,,,,,,,,,,,,,,0,0,0,0,1,0,1,0,0,21,21,21,,,,,,,,,,,,,,,,,,,,,,,,,,,,,,,,,,,,,,,,,,,,,,,,,,,,,,,,,,,,,,,,,,,,,,,,,706.0848519802094,None,,,,,,,,,,,,,,,,,,,,,,,,,,,,,,,,,,,,,,,,,,,,,,,,,,,8002,001,03,2021_Nov_04_1559,task-switching-replication,2021.2.3,59.99731075896676,
2,23,experiment,03,standing,switch,incongruant,solid,triangle,yellow,stimuli/solid-rectangle.png,stimuli/yellow-triangle.png,1,,,,,,,,,,,,,,,,,,,,,,,,,0,0,0,0,1,0,1,0,0,22,22,22,0,0,0,0,,,,,,,,,,,,,,,,,,,,,,,,,,,,,,,,,,,,,,,,,,,,,,,,,,,,,,,,,,,1636060249.5906107,,,,,,,,,,,,,,,,708.1841316223145,709.2027399539948,708.2171170711517,None,,,,,,,,,,,,,,,,,,,,,,,,,,,,,,,,,,706.3138980865479,None,707.3043031692505,None,2,0,0.7999739646911621,707.3043031692505,None,8002,001,03,2021_Nov_04_1559,task-switching-replication,2021.2.3,59.99731075896676,
2,23,experiment,03,standing,switch,incongruant,solid,triangle,yellow,stimuli/solid-rectangle.png,stimuli/yellow-triangle.png,1,,,,,,,,,,,,,,,,,,,,,,,,,0,0,0,0,1,0,1,0,0,22,22,22,,,,,,,,,,,,,,,,,,,,,,,,,,,,,,,,,,,,,,,,,,,,,,,,,,,,,,,,,,,,,,,,,,,,,,,,,713.2143490314484,None,,,,,,,,,,,,,,,,,,,,,,,,,,,,,,,,,,,,,,,,,,,,,,,,,,,8002,001,03,2021_Nov_04_1559,task-switching-replication,2021.2.3,59.99731075896676,
2,24,experiment,03,standing,noswitch,congruant,solid,triangle,yellow,stimuli/solid-rectangle.png,stimuli/yellow-triangle.png,1,,,,,,,,,,,,,,,,,,,,,,,,,0,0,0,0,1,0,1,0,0,23,23,23,,,,,,,,,,,,,,,,,,,,,,,,,,,,,,,,,,,,,,,,,,,,,,,,,,,,,,,,,,,,,,,1636060256.3067882,,,,,,,,,,714.9278111457825,None,,,,,,,,,,,,,,,,,,,,,,,,,,,,,,,,,,,,,,,,,,713.4436991214752,None,714.432825088501,None,1,1,0.3313748836517334,714.432825088501,None,8002,001,03,2021_Nov_04_1559,task-switching-replication,2021.2.3,59.99731075896676,
2,25,experiment,03,standing,noswitch,incongruant,solid,square,blue,stimuli/solid-rectangle.png,stimuli/blue-square.png,2,,,,,,,,,,,,,,,,,,,,,,,,,0,0,0,0,1,0,1,0,0,24,24,24,,,,,,,,,,,,,,,,,,,,,,,,,,,,,,,,,,,,,,,,,,,,,,,,,,,,,,,,,,,,,,,1636060258.4936707,,,,,,,,,,717.1145219802856,None,,,,,,,,,,,,,,,,,,,,,,,,,,,,,,,,,,,,,,,,,,715.1569950580597,None,716.1456961631775,None,2,1,0.8454840183258057,716.1456961631775,None,8002,001,03,2021_Nov_04_1559,task-switching-replication,2021.2.3,59.99731075896676,
2,26,experiment,03,standing,noswitch,incongruant,solid,triangle,yellow,stimuli/solid-rectangle.png,stimuli/yellow-triangle.png,1,,,,,,,,,,,,,,,,,,,,,,,,,0,0,0,0,1,0,1,0,0,25,25,25,,,,,,,,,,,,,,,,,,,,,,,,,,,,,,,,,,,,,,,,,,,,,,,,,,,,,,,,,,,,,,,1636060260.441125,,,,,,,,,,719.0627090930939,None,,,,,,,,,,,,,,,,,,,,,,,,,,,,,,,,,,,,,,,,,,717.343672990799,None,718.3327701091766,None,1,1,0.6200878620147705,718.3327701091766,None,8002,001,03,2021_Nov_04_1559,task-switching-replication,2021.2.3,59.99731075896676,
2,27,experiment,03,standing,switch,congruant,dashed,triangle,yellow,stimuli/dashed-rectangle.png,stimuli/yellow-triangle.png,1,,,,,,,,,,,,,,,,,,,,,,,,,0,0,0,0,1,0,1,0,0,26,26,26,,,,,,,,,,,,,,,,,,,,,,,,,,,,,,,,,,,,,,,,,,,,,,,,,,,,,,,,,,,,,,,1636060262.2720544,,,,,,,,,,720.8936910629272,None,,,,,,,,,,,,,,,,,,,,,,,,,,,,,,,,,,,,,,,,,,719.291531085968,None,720.2819421291351,None,1,1,0.47626304626464844,720.2819421291351,None,8002,001,03,2021_Nov_04_1559,task-switching-replication,2021.2.3,59.99731075896676,
2,28,experiment,03,standing,switch,congruant,solid,square,yellow,stimuli/solid-rectangle.png,stimuli/yellow-square.png,1,,,,,,,,,,,,,,,,,,,,,,,,,0,0,0,0,1,0,1,0,0,27,27,27,0,0,0,0,,,,,,,,,,,,,,,,,,,,,,,,,,,,,,,,,,,,,,,,,,,,,,,,,,,,,,,,,,,1636060264.3476293,,,,,,,,,,,,,,,,722.9412965774536,723.9940569400787,722.9733271598816,None,,,,,,,,,,,,,,,,,,,,,,,,,,,,,,,,,,721.12331199646,None,722.1158430576324,None,2,0,0.6994550228118896,722.1158430576324,None,8002,001,03,2021_Nov_04_1559,task-switching-replication,2021.2.3,59.99731075896676,
2,28,experiment,03,standing,switch,congruant,solid,square,yellow,stimuli/solid-rectangle.png,stimuli/yellow-square.png,1,,,,,,,,,,,,,,,,,,,,,,,,,0,0,0,0,1,0,1,0,0,27,27,27,,,,,,,,,,,,,,,,,,,,,,,,,,,,,,,,,,,,,,,,,,,,,,,,,,,,,,,,,,,,,,,,,,,,,,,,,728.0046219825745,None,,,,,,,,,,,,,,,,,,,,,,,,,,,,,,,,,,,,,,,,,,,,,,,,,,,8002,001,03,2021_Nov_04_1559,task-switching-replication,2021.2.3,59.99731075896676,
2,29,experiment,03,standing,noswitch,congruant,solid,square,yellow,stimuli/solid-rectangle.png,stimuli/yellow-square.png,1,,,,,,,,,,,,,,,,,,,,,,,,,0,0,0,0,1,0,1,0,0,28,28,28,0,0,0,0,,,,,,,,,,,,,,,,,,,,,,,,,,,,,,,,,,,,,,,,,,,,,,,,,,,,,,,,,,,1636060271.476883,,,,,,,,,,,,,,,,730.0704765319824,731.0879831314087,730.1034770011902,None,,,,,,,,,,,,,,,,,,,,,,,,,,,,,,,,,,728.2018370628357,None,729.190701007843,None,2,0,0.7643980979919434,729.190701007843,None,8002,001,03,2021_Nov_04_1559,task-switching-replication,2021.2.3,59.99731075896676,
2,29,experiment,03,standing,noswitch,congruant,solid,square,yellow,stimuli/solid-rectangle.png,stimuli/yellow-square.png,1,,,,,,,,,,,,,,,,,,,,,,,,,0,0,0,0,1,0,1,0,0,28,28,28,,,,,,,,,,,,,,,,,,,,,,,,,,,,,,,,,,,,,,,,,,,,,,,,,,,,,,,,,,,,,,,,,,,,,,,,,735.1306509971619,None,,,,,,,,,,,,,,,,,,,,,,,,,,,,,,,,,,,,,,,,,,,,,,,,,,,8002,001,03,2021_Nov_04_1559,task-switching-replication,2021.2.3,59.99731075896676,
2,30,experiment,03,standing,noswitch,incongruant,solid,square,blue,stimuli/solid-rectangle.png,stimuli/blue-square.png,2,,,,,,,,,,,,,,,,,,,,,,,,,0,0,0,0,1,0,1,0,0,29,29,29,,,,,,,,,,,,,,,,,,,,,,,,,,,,,,,,,,,,,,,,,,,,,,,,,,,,,,,,,,,,,,,1636060278.3663456,,,,,,,,,,736.9882011413574,None,,,,,,,,,,,,,,,,,,,,,,,,,,,,,,,,,,,,,,,,,,735.3275990486145,None,736.3174290657043,None,2,1,0.5616469383239746,736.3174290657043,None,8002,001,03,2021_Nov_04_1559,task-switching-replication,2021.2.3,59.99731075896676,
2,31,experiment,03,standing,switch,congruant,dashed,square,blue,stimuli/dashed-rectangle.png,stimuli/blue-square.png,2,,,,,,,,,,,,,,,,,,,,,,,,,0,0,0,0,1,0,1,0,0,30,30,30,,,,,,,,,,,,,,,,,,,,,,,,,,,,,,,,,,,,,,,,,,,,,,,,,,,,,,,,,,,,,,,1636060280.1962423,,,,,,,,,,738.8180019855499,None,,,,,,,,,,,,,,,,,,,,,,,,,,,,,,,,,,,,,,,,,,737.2176010608673,None,738.2064220905304,None,2,1,0.46563005447387695,738.2064220905304,None,8002,001,03,2021_Nov_04_1559,task-switching-replication,2021.2.3,59.99731075896676,
2,32,experiment,03,standing,switch,congruant,solid,triangle,blue,stimuli/solid-rectangle.png,stimuli/blue-triangle.png,2,,,,,,,,,,,,,,,,,,,,,,,,,0,0,0,0,1,0,1,0,0,31,31,31,,,,,,,,,,,,,,,,,,,,,,,,,,,,,,,,,,,,,,,,,,,,,,,,,,,,,,,,,,,,,,,1636060282.4429514,,,,,,,,,,741.0647461414337,None,,,,,,,,,,,,,,,,,,,,,,,,,,,,,,,,,,,,,,,,,,739.047788143158,None,740.0384321212769,None,2,1,0.905742883682251,740.0384321212769,None,8002,001,03,2021_Nov_04_1559,task-switching-replication,2021.2.3,59.99731075896676,
2,33,experiment,03,standing,switch,incongruant,dashed,triangle,yellow,stimuli/dashed-rectangle.png,stimuli/yellow-triangle.png,1,,,,,,,,,,,,,,,,,,,,,,,,,0,0,0,0,1,0,1,0,0,32,32,32,,,,,,,,,,,,,,,,,,,,,,,,,,,,,,,,,,,,,,,,,,,,,,,,,,,,,,,,,,,,,,,1636060284.336183,,,,,,,,,,742.9573991298676,None,,,,,,,,,,,,,,,,,,,,,,,,,,,,,,,,,,,,,,,,,,741.2941660881042,None,742.2845380306244,None,1,1,0.5485761165618896,742.2845380306244,None,8002,001,03,2021_Nov_04_1559,task-switching-replication,2021.2.3,59.99731075896676,
2,34,experiment,03,standing,switch,incongruant,solid,triangle,blue,stimuli/solid-rectangle.png,stimuli/blue-triangle.png,2,,,,,,,,,,,,,,,,,,,,,,,,,0,0,0,0,1,0,1,0,0,33,33,33,,,,,,,,,,,,,,,,,,,,,,,,,,,,,,,,,,,,,,,,,,,,,,,,,,,,,,,,,,,,,,,1636060286.5217526,,,,,,,,,,745.1431231498718,None,,,,,,,,,,,,,,,,,,,,,,,,,,,,,,,,,,,,,,,,,,743.1867160797119,None,744.1760711669922,None,2,1,0.8509109020233154,744.1760711669922,None,8002,001,03,2021_Nov_04_1559,task-switching-replication,2021.2.3,59.99731075896676,
2,35,experiment,03,standing,noswitch,congruant,solid,triangle,blue,stimuli/solid-rectangle.png,stimuli/blue-triangle.png,2,,,,,,,,,,,,,,,,,,,,,,,,,0,0,0,0,1,0,1,0,0,34,34,34,,,,,,,,,,,,,,,,,,,,,,,,,,,,,,,,,,,,,,,,,,,,,,,,,,,,,,,,,,,,,,,1636060288.3518364,,,,,,,,,,746.9736330509186,None,,,,,,,,,,,,,,,,,,,,,,,,,,,,,,,,,,,,,,,,,,745.372554063797,None,746.3620171546936,None,2,1,0.47205281257629395,746.3620171546936,None,8002,001,03,2021_Nov_04_1559,task-switching-replication,2021.2.3,59.99731075896676,
2,36,experiment,03,standing,switch,congruant,dashed,square,blue,stimuli/dashed-rectangle.png,stimuli/blue-square.png,2,,,,,,,,,,,,,,,,,,,,,,,,,0,0,0,0,1,0,1,0,0,35,35,35,,,,,,,,,,,,,,,,,,,,,,,,,,,,,,,,,,,,,,,,,,,,,,,,,,,,,,,,,,,,,,,1636060290.3006406,,,,,,,,,,748.922511100769,None,,,,,,,,,,,,,,,,,,,,,,,,,,,,,,,,,,,,,,,,,,747.2026970386505,None,748.1921610832214,None,2,1,0.5908529758453369,748.1921610832214,None,8002,001,03,2021_Nov_04_1559,task-switching-replication,2021.2.3,59.99731075896676,
2,37,experiment,03,standing,switch,incongruant,solid,triangle,yellow,stimuli/solid-rectangle.png,stimuli/yellow-triangle.png,1,,,,,,,,,,,,,,,,,,,,,,,,,0,0,0,0,1,0,1,0,0,36,36,36,,,,,,,,,,,,,,,,,,,,,,,,,,,,,,,,,,,,,,,,,,,,,,,,,,,,,,,,,,,,,,,1636060292.1342604,,,,,,,,,,750.7553720474243,None,,,,,,,,,,,,,,,,,,,,,,,,,,,,,,,,,,,,,,,,,,749.1514630317688,None,750.1405539512634,None,1,1,0.45617198944091797,750.1405539512634,None,8002,001,03,2021_Nov_04_1559,task-switching-replication,2021.2.3,59.99731075896676,
2,38,experiment,03,standing,switch,congruant,dashed,triangle,blue,stimuli/dashed-rectangle.png,stimuli/blue-triangle.png,1,,,,,,,,,,,,,,,,,,,,,,,,,0,0,0,0,1,0,1,0,0,37,37,37,,,,,,,,,,,,,,,,,,,,,,,,,,,,,,,,,,,,,,,,,,,,,,,,,,,,,,,,,,,,,,,1636060293.9644723,,,,,,,,,,752.5861339569092,None,,,,,,,,,,,,,,,,,,,,,,,,,,,,,,,,,,,,,,,,,,750.9849100112915,None,751.9744191169739,None,1,1,0.4764878749847412,751.9744191169739,None,8002,001,03,2021_Nov_04_1559,task-switching-replication,2021.2.3,59.99731075896676,
2,39,experiment,03,standing,switch,incongruant,solid,triangle,blue,stimuli/solid-rectangle.png,stimuli/blue-triangle.png,2,,,,,,,,,,,,,,,,,,,,,,,,,0,0,0,0,1,0,1,0,0,38,38,38,,,,,,,,,,,,,,,,,,,,,,,,,,,,,,,,,,,,,,,,,,,,,,,,,,,,,,,,,,,,,,,1636060295.9774842,,,,,,,,,,754.5985190868378,None,,,,,,,,,,,,,,,,,,,,,,,,,,,,,,,,,,,,,,,,,,752.8154580593109,None,753.8051669597626,None,2,1,0.6638889312744141,753.8051669597626,None,8002,001,03,2021_Nov_04_1559,task-switching-replication,2021.2.3,59.99731075896676,
2,40,experiment,03,standing,noswitch,incongruant,solid,square,yellow,stimuli/solid-rectangle.png,stimuli/yellow-square.png,1,,,,,,,,,,,,,,,,,,,,,,,,,0,0,0,0,1,0,1,0,0,39,39,39,,,,,,,,,,,,,,,,,,,,,,,,,,,,,,,,,,,,,,,,,,,,,,,,,,,,,,,,,,,,,,,1636060297.8696463,,,,,,,,,,756.4909379482269,None,,,,,,,,,,,,,,,,,,,,,,,,,,,,,,,,,,,,,,,,,,754.8278801441193,None,755.818489074707,None,1,1,0.518420934677124,755.818489074707,None,8002,001,03,2021_Nov_04_1559,task-switching-replication,2021.2.3,59.99731075896676,
2,41,experiment,03,standing,noswitch,incongruant,solid,triangle,blue,stimuli/solid-rectangle.png,stimuli/blue-triangle.png,2,,,,,,,,,,,,,,,,,,,,,,,,,0,0,0,0,1,0,1,0,0,40,40,40,,,,,,,,,,,,,,,,,,,,,,,,,,,,,,,,,,,,,,,,,,,,,,,,,,,,,,,,,,,,,,,1636060300.056407,,,,,,,,,,758.6781630516052,None,,,,,,,,,,,,,,,,,,,,,,,,,,,,,,,,,,,,,,,,,,756.7203299999237,None,757.7095561027527,None,2,1,0.8646030426025391,757.7095561027527,None,8002,001,03,2021_Nov_04_1559,task-switching-replication,2021.2.3,59.99731075896676,
2,42,experiment,03,standing,switch,incongruant,dashed,triangle,blue,stimuli/dashed-rectangle.png,stimuli/blue-triangle.png,1,,,,,,,,,,,,,,,,,,,,,,,,,0,0,0,0,1,0,1,0,0,41,41,41,,,,,,,,,,,,,,,,,,,,,,,,,,,,,,,,,,,,,,,,,,,,,,,,,,,,,,,,,,,,,,,1636060302.0662558,,,,,,,,,,760.6872961521149,None,,,,,,,,,,,,,,,,,,,,,,,,,,,,,,,,,,,,,,,,,,758.9075491428375,None,759.8975939750671,None,1,1,0.6561751365661621,759.8975939750671,None,8002,001,03,2021_Nov_04_1559,task-switching-replication,2021.2.3,59.99731075896676,
2,43,experiment,03,standing,noswitch,incongruant,dashed,square,blue,stimuli/dashed-rectangle.png,stimuli/blue-square.png,2,,,,,,,,,,,,,,,,,,,,,,,,,0,0,0,0,1,0,1,0,0,42,42,42,,,,,,,,,,,,,,,,,,,,,,,,,,,,,,,,,,,,,,,,,,,,,,,,,,,,,,,,,,,,,,,1636060304.1927016,,,,,,,,,,762.8137941360474,None,,,,,,,,,,,,,,,,,,,,,,,,,,,,,,,,,,,,,,,,,,760.9168651103973,None,761.9063949584961,None,2,1,0.7635860443115234,761.9063949584961,None,8002,001,03,2021_Nov_04_1559,task-switching-replication,2021.2.3,59.99731075896676,
2,44,experiment,03,standing,noswitch,congruant,dashed,square,yellow,stimuli/dashed-rectangle.png,stimuli/yellow-square.png,2,,,,,,,,,,,,,,,,,,,,,,,,,0,0,0,0,1,0,1,0,0,43,43,43,,,,,,,,,,,,,,,,,,,,,,,,,,,,,,,,,,,,,,,,,,,,,,,,,,,,,,,,,,,,,,,1636060306.0820298,,,,,,,,,,764.70388007164,None,,,,,,,,,,,,,,,,,,,,,,,,,,,,,,,,,,,,,,,,,,763.0432560443878,None,764.0331370830536,None,2,1,0.5468289852142334,764.0331370830536,None,8002,001,03,2021_Nov_04_1559,task-switching-replication,2021.2.3,59.99731075896676,
2,45,experiment,03,standing,switch,incongruant,solid,square,yellow,stimuli/solid-rectangle.png,stimuli/yellow-square.png,1,,,,,,,,,,,,,,,,,,,,,,,,,0,0,0,0,1,0,1,0,0,44,44,44,,,,,,,,,,,,,,,,,,,,,,,,,,,,,,,,,,,,,,,,,,,,,,,,,,,,,,,,,,,,,,,1636060307.9122477,,,,,,,,,,766.5339720249176,None,,,,,,,,,,,,,,,,,,,,,,,,,,,,,,,,,,,,,,,,,,764.9331700801849,None,765.9223830699921,None,1,1,0.5109779834747314,765.9223830699921,None,8002,001,03,2021_Nov_04_1559,task-switching-replication,2021.2.3,59.99731075896676,
2,46,experiment,03,standing,noswitch,congruant,solid,triangle,yellow,stimuli/solid-rectangle.png,stimuli/yellow-triangle.png,1,,,,,,,,,,,,,,,,,,,,,,,,,0,0,0,0,1,0,1,0,0,45,45,45,,,,,,,,,,,,,,,,,,,,,,,,,,,,,,,,,,,,,,,,,,,,,,,,,,,,,,,,,,,,,,,1636060309.6831508,,,,,,,,,,768.3048629760742,None,,,,,,,,,,,,,,,,,,,,,,,,,,,,,,,,,,,,,,,,,,766.762766122818,None,767.7526180744171,None,1,1,0.42029809951782227,767.7526180744171,None,8002,001,03,2021_Nov_04_1559,task-switching-replication,2021.2.3,59.99731075896676,
2,47,experiment,03,standing,switch,incongruant,dashed,square,blue,stimuli/dashed-rectangle.png,stimuli/blue-square.png,2,,,,,,,,,,,,,,,,,,,,,,,,,0,0,0,0,1,0,1,0,0,46,46,46,,,,,,,,,,,,,,,,,,,,,,,,,,,,,,,,,,,,,,,,,,,,,,,,,,,,,,,,,,,,,,,1636060311.633003,,,,,,,,,,770.2546780109406,None,,,,,,,,,,,,,,,,,,,,,,,,,,,,,,,,,,,,,,,,,,768.5343580245972,None,769.5247220993042,None,2,1,0.6264610290527344,769.5247220993042,None,8002,001,03,2021_Nov_04_1559,task-switching-replication,2021.2.3,59.99731075896676,
2,48,experiment,03,standing,noswitch,congruant,dashed,square,yellow,stimuli/dashed-rectangle.png,stimuli/yellow-square.png,2,,,,,,,,,,,,,,,,,,,,,,,,,0,0,0,0,1,0,1,0,0,47,47,47,,,,,,,,,,,,,,,,,,,,,,,,,,,,,,,,,,,,,,,,,,,,,,,,,,,,,,,,,,,,,,,1636060313.4630685,,,,,,,,,,772.0848231315613,None,,,,,,,,,,,,,,,,,,,,,,,,,,,,,,,,,,,,,,,,,,770.4838049411774,None,771.4733209609985,None,2,1,0.4566669464111328,771.4733209609985,None,8002,001,03,2021_Nov_04_1559,task-switching-replication,2021.2.3,59.99731075896676,
2,49,experiment,03,standing,switch,congruant,solid,square,blue,stimuli/solid-rectangle.png,stimuli/blue-square.png,2,,,,,,,,,,,,,,,,,,,,,,,,,0,0,0,0,1,0,1,0,0,48,48,48,,,,,,,,,,,,,,,,,,,,,,,,,,,,,,,,,,,,,,,,,,,,,,,,,,,,,,,,,,,,,,,1636060315.233424,,,,,,,,,,773.8554289340973,None,,,,,,,,,,,,,,,,,,,,,,,,,,,,,,,,,,,,,,,,,,772.3138101100922,None,773.3030309677124,None,2,1,0.4428541660308838,773.3030309677124,None,8002,001,03,2021_Nov_04_1559,task-switching-replication,2021.2.3,59.99731075896676,
,,,03,,,,,,,,,,,,,,,,,,,,,,,,,,,,,,,,,,0,0,0,0,1,0,1,0,,,,,,,,,,,,,,,,,,,,,,,,,,,,,,,,,,,,,,,,,,,,,,,,,,,,,,,,,,,,,,,,,,,,,,,,,,,,,,,,,,,,,,,,,,,,,,,,,,,,,,,,,,,,,,,,,,,,,,,,,,,,,,,,,8002,001,03,2021_Nov_04_1559,task-switching-replication,2021.2.3,59.99731075896676,
3,1,experiment,03,standing,buffer,buffer,solid,triangle,yellow,stimuli/solid-rectangle.png,stimuli/yellow-triangle.png,1,,,,,,,,,,,,,,,,,,,,,,,,,0,0,0,0,2,0,2,0,0,0,0,0,0,0,0,0,,,,,,,,,,,,,,,,,,,,,,,,,,,,,,,,,,,,,,,,,,,,,,,,,,,,,,,,,,,1636060327.3806024,,,,,,,,,,,,,,,,785.9741015434265,786.9931371212006,786.007894039154,None,,,,,,,,,,,,,,,,,,,,,,774.0851030349731,None,2,8.557806968688965,774.0851030349731,None,782.782968044281,None,2,1.06502103805542,782.782968044281,None,783.985748052597,None,784.9757599830627,None,2,0,0.927070140838623,784.9757599830627,None,8002,001,03,2021_Nov_04_1559,task-switching-replication,2021.2.3,59.99731075896676,
3,1,experiment,03,standing,buffer,buffer,solid,triangle,yellow,stimuli/solid-rectangle.png,stimuli/yellow-triangle.png,1,,,,,,,,,,,,,,,,,,,,,,,,,0,0,0,0,2,0,2,0,0,0,0,0,,,,,,,,,,,,,,,,,,,,,,,,,,,,,,,,,,,,,,,,,,,,,,,,,,,,,,,,,,,,,,,,,,,,,,,,,791.0053279399872,None,,,,,,,,,,,,,,,,,,,,,,,,,,,,,,,,,,,,,,,,,,,,,,,,,,,8002,001,03,2021_Nov_04_1559,task-switching-replication,2021.2.3,59.99731075896676,
3,2,experiment,03,standing,noswitch,incongruant,solid,square,blue,stimuli/solid-rectangle.png,stimuli/blue-square.png,2,,,,,,,,,,,,,,,,,,,,,,,,,0,0,0,0,2,0,2,0,0,1,1,1,,,,,,,,,,,,,,,,,,,,,,,,,,,,,,,,,,,,,,,,,,,,,,,,,,,,,,,,,,,,,,,1636060334.6289701,,,,,,,,,,793.2507569789886,None,,,,,,,,,,,,,,,,,,,,,,,,,,,,,,,,,,,,,,,,,,791.2347819805145,None,792.2242879867554,None,2,1,0.8934621810913086,792.2242879867554,None,8002,001,03,2021_Nov_04_1559,task-switching-replication,2021.2.3,59.99731075896676,
3,3,experiment,03,standing,noswitch,congruant,solid,square,blue,stimuli/solid-rectangle.png,stimuli/blue-square.png,2,,,,,,,,,,,,,,,,,,,,,,,,,0,0,0,0,2,0,2,0,0,2,2,2,,,,,,,,,,,,,,,,,,,,,,,,,,,,,,,,,,,,,,,,,,,,,,,,,,,,,,,,,,,,,,,1636060336.3410444,,,,,,,,,,794.9628300666809,None,,,,,,,,,,,,,,,,,,,,,,,,,,,,,,,,,,,,,,,,,,793.4800970554352,None,794.4695680141449,None,2,1,0.35938096046447754,794.4695680141449,None,8002,001,03,2021_Nov_04_1559,task-switching-replication,2021.2.3,59.99731075896676,
3,4,experiment,03,standing,switch,congruant,dashed,square,yellow,stimuli/dashed-rectangle.png,stimuli/yellow-square.png,2,,,,,,,,,,,,,,,,,,,,,,,,,0,0,0,0,2,0,2,0,0,3,3,3,,,,,,,,,,,,,,,,,,,,,,,,,,,,,,,,,,,,,,,,,,,,,,,,,,,,,,,,,,,,,,,1636060338.053092,,,,,,,,,,796.6749269962311,None,,,,,,,,,,,,,,,,,,,,,,,,,,,,,,,,,,,,,,,,,,795.1920650005341,None,796.1818189620972,None,2,1,0.3571009635925293,796.1818189620972,None,8002,001,03,2021_Nov_04_1559,task-switching-replication,2021.2.3,59.99731075896676,
3,5,experiment,03,standing,switch,incongruant,solid,square,yellow,stimuli/solid-rectangle.png,stimuli/yellow-square.png,1,,,,,,,,,,,,,,,,,,,,,,,,,0,0,0,0,2,0,2,0,0,4,4,4,,,,,,,,,,,,,,,,,,,,,,,,,,,,,,,,,,,,,,,,,,,,,,,,,,,,,,,,,,,,,,,1636060340.0673673,,,,,,,,,,798.6884660720825,None,,,,,,,,,,,,,,,,,,,,,,,,,,,,,,,,,,,,,,,,,,796.9043049812317,None,797.8944370746613,None,1,1,0.6455309391021729,797.8944370746613,None,8002,001,03,2021_Nov_04_1559,task-switching-replication,2021.2.3,59.99731075896676,
3,6,experiment,03,standing,noswitch,congruant,solid,square,yellow,stimuli/solid-rectangle.png,stimuli/yellow-square.png,1,,,,,,,,,,,,,,,,,,,,,,,,,0,0,0,0,2,0,2,0,0,5,5,5,,,,,,,,,,,,,,,,,,,,,,,,,,,,,,,,,,,,,,,,,,,,,,,,,,,,,,,,,,,,,,,1636060341.8382654,,,,,,,,,,800.4599659442902,None,,,,,,,,,,,,,,,,,,,,,,,,,,,,,,,,,,,,,,,,,,798.9180910587311,None,799.9077849388123,None,1,1,0.39580512046813965,799.9077849388123,None,8002,001,03,2021_Nov_04_1559,task-switching-replication,2021.2.3,59.99731075896676,
3,7,experiment,03,standing,switch,congruant,dashed,triangle,blue,stimuli/dashed-rectangle.png,stimuli/blue-triangle.png,1,,,,,,,,,,,,,,,,,,,,,,,,,0,0,0,0,2,0,2,0,0,6,6,6,,,,,,,,,,,,,,,,,,,,,,,,,,,,,,,,,,,,,,,,,,,,,,,,,,,,,,,,,,,,,,,1636060343.5499861,,,,,,,,,,802.1716439723969,None,,,,,,,,,,,,,,,,,,,,,,,,,,,,,,,,,,,,,,,,,,800.6893320083618,None,801.6780731678009,None,1,1,0.36949801445007324,801.6780731678009,None,8002,001,03,2021_Nov_04_1559,task-switching-replication,2021.2.3,59.99731075896676,
3,8,experiment,03,standing,noswitch,incongruant,dashed,square,yellow,stimuli/dashed-rectangle.png,stimuli/yellow-square.png,2,,,,,,,,,,,,,,,,,,,,,,,,,0,0,0,0,2,0,2,0,0,7,7,7,,,,,,,,,,,,,,,,,,,,,,,,,,,,,,,,,,,,,,,,,,,,,,,,,,,,,,,,,,,,,,,1636060345.4413548,,,,,,,,,,804.0625610351562,None,,,,,,,,,,,,,,,,,,,,,,,,,,,,,,,,,,,,,,,,,,802.4007980823517,None,803.3901469707489,None,2,1,0.5335638523101807,803.3901469707489,None,8002,001,03,2021_Nov_04_1559,task-switching-replication,2021.2.3,59.99731075896676,
3,9,experiment,03,standing,noswitch,congruant,dashed,square,blue,stimuli/dashed-rectangle.png,stimuli/blue-square.png,2,,,,,,,,,,,,,,,,,,,,,,,,,0,0,0,0,2,0,2,0,0,8,8,8,,,,,,,,,,,,,,,,,,,,,,,,,,,,,,,,,,,,,,,,,,,,,,,,,,,,,,,,,,,,,,,1636060347.212053,,,,,,,,,,805.8337659835815,None,,,,,,,,,,,,,,,,,,,,,,,,,,,,,,,,,,,,,,,,,,804.2919270992279,None,805.2815959453583,None,2,1,0.40820908546447754,805.2815959453583,None,8002,001,03,2021_Nov_04_1559,task-switching-replication,2021.2.3,59.99731075896676,
3,10,experiment,03,standing,noswitch,incongruant,dashed,triangle,blue,stimuli/dashed-rectangle.png,stimuli/blue-triangle.png,1,,,,,,,,,,,,,,,,,,,,,,,,,0,0,0,0,2,0,2,0,0,9,9,9,,,,,,,,,,,,,,,,,,,,,,,,,,,,,,,,,,,,,,,,,,,,,,,,,,,,,,,,,,,,,,,1636060348.9269533,,,,,,,,,,807.5483520030975,None,,,,,,,,,,,,,,,,,,,,,,,,,,,,,,,,,,,,,,,,,,806.0630249977112,None,807.0521659851074,None,1,1,0.33731818199157715,807.0521659851074,None,8002,001,03,2021_Nov_04_1559,task-switching-replication,2021.2.3,59.99731075896676,
3,11,experiment,03,standing,noswitch,incongruant,dashed,square,blue,stimuli/dashed-rectangle.png,stimuli/blue-square.png,2,,,,,,,,,,,,,,,,,,,,,,,,,0,0,0,0,2,0,2,0,0,10,10,10,,,,,,,,,,,,,,,,,,,,,,,,,,,,,,,,,,,,,,,,,,,,,,,,,,,,,,,,,,,,,,,1636060350.9348967,,,,,,,,,,809.5556490421295,None,,,,,,,,,,,,,,,,,,,,,,,,,,,,,,,,,,,,,,,,,,807.7781870365143,None,808.7671401500702,None,2,1,0.6397988796234131,808.7671401500702,None,8002,001,03,2021_Nov_04_1559,task-switching-replication,2021.2.3,59.99731075896676,
3,12,experiment,03,standing,noswitch,congruant,dashed,square,blue,stimuli/dashed-rectangle.png,stimuli/blue-square.png,2,,,,,,,,,,,,,,,,,,,,,,,,,0,0,0,0,2,0,2,0,0,11,11,11,,,,,,,,,,,,,,,,,,,,,,,,,,,,,,,,,,,,,,,,,,,,,,,,,,,,,,,,,,,,,,,1636060352.6472836,,,,,,,,,,811.2691609859467,None,,,,,,,,,,,,,,,,,,,,,,,,,,,,,,,,,,,,,,,,,,809.7859971523285,None,810.7759790420532,None,2,1,0.39371609687805176,810.7759790420532,None,8002,001,03,2021_Nov_04_1559,task-switching-replication,2021.2.3,59.99731075896676,
3,13,experiment,03,standing,switch,congruant,solid,triangle,blue,stimuli/solid-rectangle.png,stimuli/blue-triangle.png,2,,,,,,,,,,,,,,,,,,,,,,,,,0,0,0,0,2,0,2,0,0,12,12,12,,,,,,,,,,,,,,,,,,,,,,,,,,,,,,,,,,,,,,,,,,,,,,,,,,,,,,,,,,,,,,,1636060354.6565597,,,,,,,,,,813.2782671451569,None,,,,,,,,,,,,,,,,,,,,,,,,,,,,,,,,,,,,,,,,,,811.4987380504608,None,812.488706111908,None,2,1,0.64906907081604,812.488706111908,None,8002,001,03,2021_Nov_04_1559,task-switching-replication,2021.2.3,59.99731075896676,
3,14,experiment,03,standing,switch,incongruant,dashed,triangle,blue,stimuli/dashed-rectangle.png,stimuli/blue-triangle.png,1,,,,,,,,,,,,,,,,,,,,,,,,,0,0,0,0,2,0,2,0,0,13,13,13,,,,,,,,,,,,,,,,,,,,,,,,,,,,,,,,,,,,,,,,,,,,,,,,,,,,,,,,,,,,,,,1636060356.8467689,,,,,,,,,,815.4678380489349,None,,,,,,,,,,,,,,,,,,,,,,,,,,,,,,,,,,,,,,,,,,813.5076069831848,None,814.4982211589813,None,1,1,0.8256428241729736,814.4982211589813,None,8002,001,03,2021_Nov_04_1559,task-switching-replication,2021.2.3,59.99731075896676,
3,15,experiment,03,standing,noswitch,congruant,dashed,triangle,yellow,stimuli/dashed-rectangle.png,stimuli/yellow-triangle.png,1,,,,,,,,,,,,,,,,,,,,,,,,,0,0,0,0,2,0,2,0,0,14,14,14,,,,,,,,,,,,,,,,,,,,,,,,,,,,,,,,,,,,,,,,,,,,,,,,,,,,,,,,,,,,,,,1636060358.5594223,,,,,,,,,,817.1812801361084,None,,,,,,,,,,,,,,,,,,,,,,,,,,,,,,,,,,,,,,,,,,815.6970720291138,None,816.68776512146,None,1,1,0.3448479175567627,816.68776512146,None,8002,001,03,2021_Nov_04_1559,task-switching-replication,2021.2.3,59.99731075896676,
3,16,experiment,03,standing,switch,incongruant,solid,triangle,blue,stimuli/solid-rectangle.png,stimuli/blue-triangle.png,2,,,,,,,,,,,,,,,,,,,,,,,,,0,0,0,0,2,0,2,0,0,15,15,15,,,,,,,,,,,,,,,,,,,,,,,,,,,,,,,,,,,,,,,,,,,,,,,,,,,,,,,,,,,,,,,1636060360.5089958,,,,,,,,,,819.1301040649414,None,,,,,,,,,,,,,,,,,,,,,,,,,,,,,,,,,,,,,,,,,,817.4106040000916,None,818.4008259773254,None,2,1,0.6265630722045898,818.4008259773254,None,8002,001,03,2021_Nov_04_1559,task-switching-replication,2021.2.3,59.99731075896676,
3,17,experiment,03,standing,switch,congruant,dashed,square,blue,stimuli/dashed-rectangle.png,stimuli/blue-square.png,2,,,,,,,,,,,,,,,,,,,,,,,,,0,0,0,0,2,0,2,0,0,16,16,16,,,,,,,,,,,,,,,,,,,,,,,,,,,,,,,,,,,,,,,,,,,,,,,,,,,,,,,,,,,,,,,1636060362.2808719,,,,,,,,,,820.9026999473572,None,,,,,,,,,,,,,,,,,,,,,,,,,,,,,,,,,,,,,,,,,,819.3593990802765,None,820.3499970436096,None,2,1,0.4057600498199463,820.3499970436096,None,8002,001,03,2021_Nov_04_1559,task-switching-replication,2021.2.3,59.99731075896676,
3,18,experiment,03,standing,noswitch,incongruant,dashed,triangle,yellow,stimuli/dashed-rectangle.png,stimuli/yellow-triangle.png,1,,,,,,,,,,,,,,,,,,,,,,,,,0,0,0,0,2,0,2,0,0,17,17,17,,,,,,,,,,,,,,,,,,,,,,,,,,,,,,,,,,,,,,,,,,,,,,,,,,,,,,,,,,,,,,,1636060364.0555785,,,,,,,,,,822.6766369342804,None,,,,,,,,,,,,,,,,,,,,,,,,,,,,,,,,,,,,,,,,,,821.1317839622498,None,822.1221921443939,None,1,1,0.4204978942871094,822.1221921443939,None,8002,001,03,2021_Nov_04_1559,task-switching-replication,2021.2.3,59.99731075896676,
3,19,experiment,03,standing,switch,incongruant,solid,triangle,blue,stimuli/solid-rectangle.png,stimuli/blue-triangle.png,2,,,,,,,,,,,,,,,,,,,,,,,,,0,0,0,0,2,0,2,0,0,18,18,18,,,,,,,,,,,,,,,,,,,,,,,,,,,,,,,,,,,,,,,,,,,,,,,,,,,,,,,,,,,,,,,1636060365.9499393,,,,,,,,,,824.5711979866028,None,,,,,,,,,,,,,,,,,,,,,,,,,,,,,,,,,,,,,,,,,,822.9060981273651,None,823.8962600231171,None,2,1,0.5212109088897705,823.8962600231171,None,8002,001,03,2021_Nov_04_1559,task-switching-replication,2021.2.3,59.99731075896676,
3,20,experiment,03,standing,noswitch,congruant,solid,square,blue,stimuli/solid-rectangle.png,stimuli/blue-square.png,2,,,,,,,,,,,,,,,,,,,,,,,,,0,0,0,0,2,0,2,0,0,19,19,19,,,,,,,,,,,,,,,,,,,,,,,,,,,,,,,,,,,,,,,,,,,,,,,,,,,,,,,,,,,,,,,1636060367.9580092,,,,,,,,,,826.5797171592712,None,,,,,,,,,,,,,,,,,,,,,,,,,,,,,,,,,,,,,,,,,,824.8010251522064,None,825.7903981208801,None,2,1,0.6331679821014404,825.7903981208801,None,8002,001,03,2021_Nov_04_1559,task-switching-replication,2021.2.3,59.99731075896676,
3,21,experiment,03,standing,noswitch,incongruant,solid,square,yellow,stimuli/solid-rectangle.png,stimuli/yellow-square.png,1,,,,,,,,,,,,,,,,,,,,,,,,,0,0,0,0,2,0,2,0,0,20,20,20,,,,,,,,,,,,,,,,,,,,,,,,,,,,,,,,,,,,,,,,,,,,,,,,,,,,,,,,,,,,,,,1636060369.73441,,,,,,,,,,828.3555691242218,None,,,,,,,,,,,,,,,,,,,,,,,,,,,,,,,,,,,,,,,,,,826.8087000846863,None,827.7988080978394,None,1,1,0.4229700565338135,827.7988080978394,None,8002,001,03,2021_Nov_04_1559,task-switching-replication,2021.2.3,59.99731075896676,
3,22,experiment,03,standing,switch,incongruant,dashed,square,yellow,stimuli/dashed-rectangle.png,stimuli/yellow-square.png,2,,,,,,,,,,,,,,,,,,,,,,,,,0,0,0,0,2,0,2,0,0,21,21,21,,,,,,,,,,,,,,,,,,,,,,,,,,,,,,,,,,,,,,,,,,,,,,,,,,,,,,,,,,,,,,,1636060371.510393,,,,,,,,,,830.1314580440521,None,,,,,,,,,,,,,,,,,,,,,,,,,,,,,,,,,,,,,,,,,,828.5854301452637,None,829.5751280784607,None,2,1,0.39775800704956055,829.5751280784607,None,8002,001,03,2021_Nov_04_1559,task-switching-replication,2021.2.3,59.99731075896676,
3,23,experiment,03,standing,switch,congruant,solid,square,blue,stimuli/solid-rectangle.png,stimuli/blue-square.png,2,,,,,,,,,,,,,,,,,,,,,,,,,0,0,0,0,2,0,2,0,0,22,22,22,,,,,,,,,,,,,,,,,,,,,,,,,,,,,,,,,,,,,,,,,,,,,,,,,,,,,,,,,,,,,,,1636060373.3417747,,,,,,,,,,831.9643671512604,None,,,,,,,,,,,,,,,,,,,,,,,,,,,,,,,,,,,,,,,,,,830.3608651161194,None,831.3517079353333,None,2,1,0.4849538803100586,831.3517079353333,None,8002,001,03,2021_Nov_04_1559,task-switching-replication,2021.2.3,59.99731075896676,
3,24,experiment,03,standing,switch,congruant,dashed,square,yellow,stimuli/dashed-rectangle.png,stimuli/yellow-square.png,2,,,,,,,,,,,,,,,,,,,,,,,,,0,0,0,0,2,0,2,0,0,23,23,23,,,,,,,,,,,,,,,,,,,,,,,,,,,,,,,,,,,,,,,,,,,,,,,,,,,,,,,,,,,,,,,1636060375.3515208,,,,,,,,,,833.973396062851,None,,,,,,,,,,,,,,,,,,,,,,,,,,,,,,,,,,,,,,,,,,832.193706035614,None,833.1834030151367,None,2,1,0.6873030662536621,833.1834030151367,None,8002,001,03,2021_Nov_04_1559,task-switching-replication,2021.2.3,59.99731075896676,
3,25,experiment,03,standing,noswitch,incongruant,dashed,triangle,yellow,stimuli/dashed-rectangle.png,stimuli/yellow-triangle.png,1,,,,,,,,,,,,,,,,,,,,,,,,,0,0,0,0,2,0,2,0,0,24,24,24,,,,,,,,,,,,,,,,,,,,,,,,,,,,,,,,,,,,,,,,,,,,,,,,,,,,,,,,,,,,,,,1636060377.3600206,,,,,,,,,,835.9813849925995,None,,,,,,,,,,,,,,,,,,,,,,,,,,,,,,,,,,,,,,,,,,834.2024331092834,None,835.1918151378632,None,1,1,0.6355619430541992,835.1918151378632,None,8002,001,03,2021_Nov_04_1559,task-switching-replication,2021.2.3,59.99731075896676,
3,26,experiment,03,standing,noswitch,congruant,dashed,triangle,yellow,stimuli/dashed-rectangle.png,stimuli/yellow-triangle.png,1,,,,,,,,,,,,,,,,,,,,,,,,,0,0,0,0,2,0,2,0,0,25,25,25,,,,,,,,,,,,,,,,,,,,,,,,,,,,,,,,,,,,,,,,,,,,,,,,,,,,,,,,,,,,,,,1636060379.1907814,,,,,,,,,,837.8126471042633,None,,,,,,,,,,,,,,,,,,,,,,,,,,,,,,,,,,,,,,,,,,836.2108769416809,None,837.200737953186,None,1,1,0.46564292907714844,837.200737953186,None,8002,001,03,2021_Nov_04_1559,task-switching-replication,2021.2.3,59.99731075896676,
3,27,experiment,03,standing,noswitch,incongruant,dashed,square,blue,stimuli/dashed-rectangle.png,stimuli/blue-square.png,2,,,,,,,,,,,,,,,,,,,,,,,,,0,0,0,0,2,0,2,0,0,26,26,26,,,,,,,,,,,,,,,,,,,,,,,,,,,,,,,,,,,,,,,,,,,,,,,,,,,,,,,,,,,,,,,1636060381.264925,,,,,,,,,,839.8860199451447,None,,,,,,,,,,,,,,,,,,,,,,,,,,,,,,,,,,,,,,,,,,838.0421330928802,None,839.0326161384583,None,2,1,0.7044119834899902,839.0326161384583,None,8002,001,03,2021_Nov_04_1559,task-switching-replication,2021.2.3,59.99731075896676,
3,28,experiment,03,standing,switch,incongruant,solid,triangle,yellow,stimuli/solid-rectangle.png,stimuli/yellow-triangle.png,1,,,,,,,,,,,,,,,,,,,,,,,,,0,0,0,0,2,0,2,0,0,27,27,27,,,,,,,,,,,,,,,,,,,,,,,,,,,,,,,,,,,,,,,,,,,,,,,,,,,,,,,,,,,,,,,1636060383.2729468,,,,,,,,,,841.8946199417114,None,,,,,,,,,,,,,,,,,,,,,,,,,,,,,,,,,,,,,,,,,,840.1154749393463,None,841.1053819656372,None,1,1,0.6894841194152832,841.1053819656372,None,8002,001,03,2021_Nov_04_1559,task-switching-replication,2021.2.3,59.99731075896676,
3,29,experiment,03,standing,noswitch,congruant,solid,triangle,yellow,stimuli/solid-rectangle.png,stimuli/yellow-triangle.png,1,,,,,,,,,,,,,,,,,,,,,,,,,0,0,0,0,2,0,2,0,0,28,28,28,,,,,,,,,,,,,,,,,,,,,,,,,,,,,,,,,,,,,,,,,,,,,,,,,,,,,,,,,,,,,,,1636060384.9849448,,,,,,,,,,843.606910943985,None,,,,,,,,,,,,,,,,,,,,,,,,,,,,,,,,,,,,,,,,,,842.1234540939331,None,843.1133670806885,None,1,1,0.34415292739868164,843.1133670806885,None,8002,001,03,2021_Nov_04_1559,task-switching-replication,2021.2.3,59.99731075896676,
3,30,experiment,03,standing,noswitch,incongruant,solid,triangle,blue,stimuli/solid-rectangle.png,stimuli/blue-triangle.png,2,,,,,,,,,,,,,,,,,,,,,,,,,0,0,0,0,2,0,2,0,0,29,29,29,,,,,,,,,,,,,,,,,,,,,,,,,,,,,,,,,,,,,,,,,,,,,,,,,,,,,,,,,,,,,,,1636060386.8156085,,,,,,,,,,845.4368741512299,None,,,,,,,,,,,,,,,,,,,,,,,,,,,,,,,,,,,,,,,,,,843.8362610340118,None,844.8257019519806,None,2,1,0.4994161128997803,844.8257019519806,None,8002,001,03,2021_Nov_04_1559,task-switching-replication,2021.2.3,59.99731075896676,
3,31,experiment,03,standing,switch,incongruant,dashed,triangle,blue,stimuli/dashed-rectangle.png,stimuli/blue-triangle.png,1,,,,,,,,,,,,,,,,,,,,,,,,,0,0,0,0,2,0,2,0,0,30,30,30,,,,,,,,,,,,,,,,,,,,,,,,,,,,,,,,,,,,,,,,,,,,,,,,,,,,,,,,,,,,,,,1636060388.472371,,,,,,,,,,847.0935089588165,None,,,,,,,,,,,,,,,,,,,,,,,,,,,,,,,,,,,,,,,,,,845.6664490699768,None,846.6570451259613,None,1,1,0.2826249599456787,846.6570451259613,None,8002,001,03,2021_Nov_04_1559,task-switching-replication,2021.2.3,59.99731075896676,
3,32,experiment,03,standing,noswitch,incongruant,dashed,square,blue,stimuli/dashed-rectangle.png,stimuli/blue-square.png,2,,,,,,,,,,,,,,,,,,,,,,,,,0,0,0,0,2,0,2,0,0,31,31,31,,,,,,,,,,,,,,,,,,,,,,,,,,,,,,,,,,,,,,,,,,,,,,,,,,,,,,,,,,,,,,,1636060390.1836274,,,,,,,,,,848.8050439357758,None,,,,,,,,,,,,,,,,,,,,,,,,,,,,,,,,,,,,,,,,,,847.3229789733887,None,848.3125071525574,None,2,1,0.39064979553222656,848.3125071525574,None,8002,001,03,2021_Nov_04_1559,task-switching-replication,2021.2.3,59.99731075896676,
3,33,experiment,03,standing,switch,incongruant,solid,square,yellow,stimuli/solid-rectangle.png,stimuli/yellow-square.png,1,,,,,,,,,,,,,,,,,,,,,,,,,0,0,0,0,2,0,2,0,0,32,32,32,,,,,,,,,,,,,,,,,,,,,,,,,,,,,,,,,,,,,,,,,,,,,,,,,,,,,,,,,,,,,,,1636060392.30899,,,,,,,,,,850.9312269687653,None,,,,,,,,,,,,,,,,,,,,,,,,,,,,,,,,,,,,,,,,,,849.0338840484619,None,850.0233161449432,None,1,1,0.792963981628418,850.0233161449432,None,8002,001,03,2021_Nov_04_1559,task-switching-replication,2021.2.3,59.99731075896676,
