blockNum,trialNum,trialType,condition,posture,switchTrialType,congruantTrialType,cueType,shapeType,shapeColor,cueFileName,stimuliFileName,correctAnswer,untimedTrials.thisRepN,untimedTrials.thisTrialN,untimedTrials.thisN,untimedTrials.thisIndex,selectSolid1.thisRepN,selectSolid1.thisTrialN,selectSolid1.thisN,selectSolid1.thisIndex,selectDashed1.thisRepN,selectDashed1.thisTrialN,selectDashed1.thisN,selectDashed1.thisIndex,timedTrials.thisRepN,timedTrials.thisTrialN,timedTrials.thisN,timedTrials.thisIndex,selectSolid2.thisRepN,selectSolid2.thisTrialN,selectSolid2.thisN,selectSolid2.thisIndex,selectDashed2.thisRepN,selectDashed2.thisTrialN,selectDashed2.thisN,selectDashed2.thisIndex,postures.thisRepN,postures.thisTrialN,postures.thisN,postures.thisIndex,blocks.thisRepN,blocks.thisTrialN,blocks.thisN,blocks.thisIndex,trials.thisRepN,trials.thisTrialN,trials.thisN,trials.thisIndex,selectSolid.thisRepN,selectSolid.thisTrialN,selectSolid.thisN,selectSolid.thisIndex,selectDashed.thisRepN,selectDashed.thisTrialN,selectDashed.thisN,selectDashed.thisIndex,text_3.started,text_3.stopped,key_resp_2.keys,key_resp_2.rt,key_resp_2.started,key_resp_2.stopped,image_4.started,image_4.stopped,key_resp_4.keys,key_resp_4.rt,key_resp_4.started,key_resp_4.stopped,image_5.started,image_5.stopped,key_resp_5.keys,key_resp_5.rt,key_resp_5.started,key_resp_5.stopped,image_6.started,image_6.stopped,key_resp_6.keys,key_resp_6.rt,key_resp_6.started,key_resp_6.stopped,image_7.started,image_7.stopped,key_resp_7.keys,key_resp_7.rt,key_resp_7.started,key_resp_7.stopped,image_8.started,image_8.stopped,key_resp_8.keys,key_resp_8.rt,key_resp_8.started,key_resp_8.stopped,image_9.started,image_9.stopped,key_resp_9.keys,key_resp_9.rt,key_resp_9.started,key_resp_9.stopped,image_10.started,image_10.stopped,key_resp_10.keys,key_resp_10.rt,key_resp_10.started,key_resp_10.stopped,image_11.started,image_11.stopped,key_resp_11.keys,key_resp_11.rt,key_resp_11.started,key_resp_11.stopped,utcTime,cue_untimed_image.started,cue_untimed_image.stopped,stimuli_untimed_image.started,stimuli_untimed_image.stopped,untimed_resp.keys,untimed_resp.corr,untimed_resp.rt,untimed_resp.started,untimed_resp.stopped,text_2.started,text_2.stopped,sound_1.started,sound_1.stopped,image_2.started,image_2.stopped,sound_2.started,sound_2.stopped,image_3.started,image_3.stopped,image_12.started,image_12.stopped,key_resp_12.keys,key_resp_12.rt,key_resp_12.started,key_resp_12.stopped,image_13.started,image_13.stopped,key_resp_13.keys,key_resp_13.rt,key_resp_13.started,key_resp_13.stopped,cue_timed_image.started,cue_timed_image.stopped,stimuli_timed_image.started,stimuli_timed_image.stopped,timed_resp.keys,timed_resp.corr,timed_resp.rt,timed_resp.started,timed_resp.stopped,image.started,image.stopped,key_response.keys,key_response.rt,key_response.started,key_response.stopped,text.started,text.stopped,key_resp.keys,key_resp.rt,key_resp.started,key_resp.stopped,cue_image.started,cue_image.stopped,stimuli_image.started,stimuli_image.stopped,exp_resp.keys,exp_resp.corr,exp_resp.rt,exp_resp.started,exp_resp.stopped,participant,session,condition,date,expName,psychopyVersion,frameRate,
,,,11,,,,,,,,,,,,,,,,,,,,,,,,,,,,,,,,,,,,,,,,,,,,,,,,,,,,,,41.475069999694824,None,2,4.558579921722412,41.475069999694824,None,,,,,,,,,,,,,,,,,,,,,,,,,,,,,,,,,,,,,,,,,,,,,,,,,,,,,,,,,,,,,,,,,,,,,,,,,,,,,,,,,,,,,,,,,,,,,,,,,,,,,,,,,,,,,,,8003,001,11,2021_Nov_05_1033,task-switching-replication,2021.2.3,59.98435428533836,
,,,11,,,,,,,,,,,,,,,,,,,,,,,,,,,,,,,,,,,,,,,,,,,,,,,,,,,,,,,,,,,,46.08556604385376,None,2,4.68603515625,46.08556604385376,None,,,,,,,,,,,,,,,,,,,,,,,,,,,,,,,,,,,,,,,,,,,,,,,,,,,,,,,,,,,,,,,,,,,,,,,,,,,,,,,,,,,,,,,,,,,,,,,,,,,,,,,,,8003,001,11,2021_Nov_05_1033,task-switching-replication,2021.2.3,59.98435428533836,
,,,11,,,,,,,,,,,,,,,,,,,,,,,,,,,,,,,,,,,,,,,,,,,,,,,,,,,,,,,,,,,,,,,,,,50.80279207229614,None,1,11.767022848129272,50.80279207229614,None,,,,,,,,,,,,,,,,,,,,,,,,,,,,,,,,,,,,,,,,,,,,,,,,,,,,,,,,,,,,,,,,,,,,,,,,,,,,,,,,,,,,,,,,,,,,,,,,,,,8003,001,11,2021_Nov_05_1033,task-switching-replication,2021.2.3,59.98435428533836,
,,,11,,,,,,,,,,,,,,,,,,,,,,,,,,,,,,,,,,,,,,,,,,,,,,,,,,,,,,,,,,,,,,,,,,,,,,,,62.614431858062744,None,2,5.385411024093628,62.614431858062744,None,,,,,,,,,,,,,,,,,,,,,,,,,,,,,,,,,,,,,,,,,,,,,,,,,,,,,,,,,,,,,,,,,,,,,,,,,,,,,,,,,,,,,,,,,,,,,8003,001,11,2021_Nov_05_1033,task-switching-replication,2021.2.3,59.98435428533836,
,,,11,,,,,,,,,,,,,,,,,,,,,,,,,,,,,,,,,,,,,,,,,,,,,,,,,,,,,,,,,,,,,,,,,,,,,,,,,,,,,,68.05819797515869,None,2,1.4962818622589111,68.05819797515869,None,,,,,,,,,,,,,,,,,,,,,,,,,,,,,,,,,,,,,,,,,,,,,,,,,,,,,,,,,,,,,,,,,,,,,,,,,,,,,,,,,,,,,,,8003,001,11,2021_Nov_05_1033,task-switching-replication,2021.2.3,59.98435428533836,
,,,11,,,,,,,,,,,,,,,,,,,,,,,,,,,,,,,,,,,,,,,,,,,,,,,,,,,,,,,,,,,,,,,,,,,,,,,,,,,,,,,,,,,,69.63343000411987,None,1,8.581151962280273,69.63343000411987,None,,,,,,,,,,,,,,,,,,,,,,,,,,,,,,,,,,,,,,,,,,,,,,,,,,,,,,,,,,,,,,,,,,,,,,,,,,,,,,,,,8003,001,11,2021_Nov_05_1033,task-switching-replication,2021.2.3,59.98435428533836,
,,,11,,,,,,,,,,,,,,,,,,,,,,,,,,,,,,,,,,,,,,,,,,,,,,,,,,,,,,,,,,,,,,,,,,,,,,,,,,,,,,,,,,,,,,,,,,78.29737591743469,None,2,3.8176097869873047,78.29737591743469,None,,,,,,,,,,,,,,,,,,,,,,,,,,,,,,,,,,,,,,,,,,,,,,,,,,,,,,,,,,,,,,,,,,,,,,,,,,,8003,001,11,2021_Nov_05_1033,task-switching-replication,2021.2.3,59.98435428533836,
,,,11,,,,,,,,,,,,,,,,,,,,,,,,,,,,,,,,,,,,,,,,,,,,,,,,,,,,,,,,,,,,,,,,,,,,,,,,,,,,,,,,,,,,,,,,,,,,,,,,82.18452000617981,None,2,2.6619009971618652,82.18452000617981,None,,,,,,,,,,,,,,,,,,,,,,,,,,,,,,,,,,,,,,,,,,,,,,,,,,,,,,,,,,,,,,,,,,,,,8003,001,11,2021_Nov_05_1033,task-switching-replication,2021.2.3,59.98435428533836,
,,,11,,,,,,,,,,,,,,,,,,,,,,,,,,,,,,,,,,,,,,,,,,,,,,,,,,,,,,,,,,,,,,,,,,,,,,,,,,,,,,,,,,,,,,,,,,,,,,,,,,,,,,84.97957706451416,None,1,17.20243787765503,84.97957706451416,None,,,,,,,,,,,,,,,,,,,,,,,,,,,,,,,,,,,,,,,,,,,,,,,,,,,,,,,,,,,,,,,8003,001,11,2021_Nov_05_1033,task-switching-replication,2021.2.3,59.98435428533836,
1,1,untimed,11,sitting,buffer,buffer,dashed,triangle,blue,stimuli/dashed-rectangle.png,stimuli/blue-triangle.png,1,0,0,0,0,,,,,,,,,,,,,,,,,,,,,,,,,,,,,,,,,,,,,,,,,,,,,,,,,,,,,,,,,,,,,,,,,,,,,,,,,,,,,,,,,,,,,,,,,,,,,,,1636126481.9026206,102.3450300693512,None,103.31906700134277,None,1,1,0.8781850337982178,103.31906700134277,None,104.35662794113159,None,,,,,,,,,,,,,,,,,,,,,,,,,,,,,,,,,,,,,,,,,,,,,,,,,,,8003,001,11,2021_Nov_05_1033,task-switching-replication,2021.2.3,59.98435428533836,
1,2,untimed,11,sitting,switch,incongruant,solid,triangle,blue,stimuli/solid-rectangle.png,stimuli/blue-triangle.png,2,0,1,1,1,,,,,,,,,,,,,,,,,,,,,,,,,,,,,,,,,,,,,,,,,,,,,,,,,,,,,,,,,,,,,,,,,,,,,,,,,,,,,,,,,,,,,,,,,,,,,,,1636126483.7861953,104.5864930152893,None,105.55834293365479,None,2,1,0.550853967666626,105.55834293365479,None,106.23881101608276,None,,,,,,,,,,,,,,,,,,,,,,,,,,,,,,,,,,,,,,,,,,,,,,,,,,,8003,001,11,2021_Nov_05_1033,task-switching-replication,2021.2.3,59.98435428533836,
1,3,untimed,11,sitting,noswitch,incongruant,solid,triangle,yellow,stimuli/solid-rectangle.png,stimuli/yellow-triangle.png,1,0,2,2,2,,,,,,,,,,,,,,,,,,,,,,,,,,,,,,,,,,,,,,,,,,,,,,,,,,,,,,,,,,,,,,,,,,,,,,,,,,,,,,,,,,,,,,,,,,,,,,,1636126485.7898684,106.4682469367981,None,107.44080805778503,None,1,1,0.6622569561004639,107.44080805778503,None,108.24272108078003,None,,,,,,,,,,,,,,,,,,,,,,,,,,,,,,,,,,,,,,,,,,,,,,,,,,,8003,001,11,2021_Nov_05_1033,task-switching-replication,2021.2.3,59.98435428533836,
1,4,untimed,11,sitting,noswitch,congruant,solid,square,yellow,stimuli/solid-rectangle.png,stimuli/yellow-square.png,1,0,3,3,3,,,,,,,,,,,,,,,,,,,,,,,,,,,,,,,,,,,,,,,,,,,,,,,,,,,,,,,,,,,,,,,,,,,,,,,,,,,,,,,,,,,,,,,,,,,,,,,1636126487.6080997,108.47253608703613,None,109.4445059299469,None,1,1,0.4677269458770752,109.4445059299469,None,110.06135296821594,None,,,,,,,,,,,,,,,,,,,,,,,,,,,,,,,,,,,,,,,,,,,,,,,,,,,8003,001,11,2021_Nov_05_1033,task-switching-replication,2021.2.3,59.98435428533836,
1,5,untimed,11,sitting,switch,incongruant,dashed,square,blue,stimuli/dashed-rectangle.png,stimuli/blue-square.png,2,0,4,4,4,,,,,,,,,,,,,,,,,,,,,,,,,,,,,,,,,,,,,,,,,,,,,,,,,,,,,,,,,,,,,,,,,,,,,,,,,,,,,,,,,,,,,,,,,,,,,,,1636126489.250246,110.29132103919983,None,111.26615595817566,None,2,1,0.3396639823913574,111.26615595817566,None,111.7032220363617,None,,,,,,,,,,,,,,,,,,,,,,,,,,,,,,,,,,,,,,,,,,,,,,,,,,,8003,001,11,2021_Nov_05_1033,task-switching-replication,2021.2.3,59.98435428533836,
1,6,untimed,11,sitting,noswitch,incongruant,dashed,triangle,yellow,stimuli/dashed-rectangle.png,stimuli/yellow-triangle.png,1,0,5,5,5,,,,,,,,,,,,,,,,,,,,,,,,,,,,,,,,,,,,,,,,,,,,,,,,,,,,,,,,,,,,,,,,,,,,,,,,,,,,,,,,,,,,,,,,,,,,,,,1636126491.6686616,111.93267893791199,None,112.90486598014832,None,1,1,1.1002891063690186,112.90486598014832,None,114.12164402008057,None,,,,,,,,,,,,,,,,,,,,,,,,,,,,,,,,,,,,,,,,,,,,,,,,,,,8003,001,11,2021_Nov_05_1033,task-switching-replication,2021.2.3,59.98435428533836,
1,7,untimed,11,sitting,switch,incongruant,solid,triangle,blue,stimuli/solid-rectangle.png,stimuli/blue-triangle.png,2,0,6,6,6,0,0,0,0,,,,,,,,,,,,,,,,,,,,,,,,,,,,,,,,,,,,,,,,,,,,,,,,,,,,,,,,,,,,,,,,,,,,,,,,,,,,,,,,,,,,,,,,,,,1636126493.788732,114.35174894332886,None,115.32439088821411,None,1,0,0.790647029876709,115.32439088821411,None,,,116.21388697624207,117.23212099075317,116.24706602096558,None,,,,,,,,,,,,,,,,,,,,,,,,,,,,,,,,,,,,,,,,,,,,,,,8003,001,11,2021_Nov_05_1033,task-switching-replication,2021.2.3,59.98435428533836,
1,7,untimed,11,sitting,switch,incongruant,solid,triangle,blue,stimuli/solid-rectangle.png,stimuli/blue-triangle.png,2,0,6,6,6,,,,,,,,,,,,,,,,,,,,,,,,,,,,,,,,,,,,,,,,,,,,,,,,,,,,,,,,,,,,,,,,,,,,,,,,,,,,,,,,,,,,,,,,,,,,,,,,,,,,,,,,,121.27407503128052,None,,,,,,,,,,,,,,,,,,,,,,,,,,,,,,,,,,,,,,,,,,,,,,,,,,,8003,001,11,2021_Nov_05_1033,task-switching-replication,2021.2.3,59.98435428533836,
1,8,untimed,11,sitting,switch,congruant,dashed,square,yellow,stimuli/dashed-rectangle.png,stimuli/yellow-square.png,2,0,7,7,7,,,,,0,0,0,0,,,,,,,,,,,,,,,,,,,,,,,,,,,,,,,,,,,,,,,,,,,,,,,,,,,,,,,,,,,,,,,,,,,,,,,,,,,,,,,,,,,,,,,1636126500.9682763,121.47156596183777,None,122.44418406486511,None,1,0,0.818976879119873,122.44418406486511,None,,,,,,,123.39351606369019,124.41239094734192,123.42696785926819,None,,,,,,,,,,,,,,,,,,,,,,,,,,,,,,,,,,,,,,,,,,,8003,001,11,2021_Nov_05_1033,task-switching-replication,2021.2.3,59.98435428533836,
1,8,untimed,11,sitting,switch,congruant,dashed,square,yellow,stimuli/dashed-rectangle.png,stimuli/yellow-square.png,2,0,7,7,7,,,,,,,,,,,,,,,,,,,,,,,,,,,,,,,,,,,,,,,,,,,,,,,,,,,,,,,,,,,,,,,,,,,,,,,,,,,,,,,,,,,,,,,,,,,,,,,,,,,,,,,,,128.45569896697998,None,,,,,,,,,,,,,,,,,,,,,,,,,,,,,,,,,,,,,,,,,,,,,,,,,,,8003,001,11,2021_Nov_05_1033,task-switching-replication,2021.2.3,59.98435428533836,
1,9,untimed,11,sitting,switch,incongruant,solid,triangle,yellow,stimuli/solid-rectangle.png,stimuli/yellow-triangle.png,1,0,8,8,8,,,,,,,,,,,,,,,,,,,,,,,,,,,,,,,,,,,,,,,,,,,,,,,,,,,,,,,,,,,,,,,,,,,,,,,,,,,,,,,,,,,,,,,,,,,,,,,1636126507.9125936,128.65344190597534,None,129.6276500225067,None,1,1,0.6053028106689453,129.6276500225067,None,130.36636900901794,None,,,,,,,,,,,,,,,,,,,,,,,,,,,,,,,,,,,,,,,,,,,,,,,,,,,8003,001,11,2021_Nov_05_1033,task-switching-replication,2021.2.3,59.98435428533836,
1,10,untimed,11,sitting,noswitch,incongruant,solid,square,blue,stimuli/solid-rectangle.png,stimuli/blue-square.png,2,0,9,9,9,,,,,,,,,,,,,,,,,,,,,,,,,,,,,,,,,,,,,,,,,,,,,,,,,,,,,,,,,,,,,,,,,,,,,,,,,,,,,,,,,,,,,,,,,,,,,,,1636126509.9157534,130.5964229106903,None,131.56862902641296,None,2,1,0.6502950191497803,131.56862902641296,None,132.3682599067688,None,,,,,,,,,,,,,,,,,,,,,,,,,,,,,,,,,,,,,,,,,,,,,,,,,,,8003,001,11,2021_Nov_05_1033,task-switching-replication,2021.2.3,59.98435428533836,
1,11,untimed,11,sitting,noswitch,incongruant,solid,square,yellow,stimuli/solid-rectangle.png,stimuli/yellow-square.png,1,0,10,10,10,0,0,0,0,,,,,,,,,,,,,,,,,,,,,,,,,,,,,,,,,,,,,,,,,,,,,,,,,,,,,,,,,,,,,,,,,,,,,,,,,,,,,,,,,,,,,,,,,,,1636126512.1541634,132.5979778766632,None,133.57011890411377,None,2,0,0.9308719635009766,133.57011890411377,None,,,134.57936787605286,135.59733486175537,134.6121859550476,None,,,,,,,,,,,,,,,,,,,,,,,,,,,,,,,,,,,,,,,,,,,,,,,8003,001,11,2021_Nov_05_1033,task-switching-replication,2021.2.3,59.98435428533836,
1,11,untimed,11,sitting,noswitch,incongruant,solid,square,yellow,stimuli/solid-rectangle.png,stimuli/yellow-square.png,1,0,10,10,10,,,,,,,,,,,,,,,,,,,,,,,,,,,,,,,,,,,,,,,,,,,,,,,,,,,,,,,,,,,,,,,,,,,,,,,,,,,,,,,,,,,,,,,,,,,,,,,,,,,,,,,,,139.64217400550842,None,,,,,,,,,,,,,,,,,,,,,,,,,,,,,,,,,,,,,,,,,,,,,,,,,,,8003,001,11,2021_Nov_05_1033,task-switching-replication,2021.2.3,59.98435428533836,
1,12,untimed,11,sitting,switch,congruant,dashed,triangle,yellow,stimuli/dashed-rectangle.png,stimuli/yellow-triangle.png,1,0,11,11,11,,,,,0,0,0,0,,,,,,,,,,,,,,,,,,,,,,,,,,,,,,,,,,,,,,,,,,,,,,,,,,,,,,,,,,,,,,,,,,,,,,,,,,,,,,,,,,,,,,,1636126518.9756696,139.839262008667,None,140.81180906295776,None,2,0,0.49016284942626953,140.81180906295776,None,,,,,,,141.40087389945984,142.45336389541626,141.4342279434204,None,,,,,,,,,,,,,,,,,,,,,,,,,,,,,,,,,,,,,,,,,,,8003,001,11,2021_Nov_05_1033,task-switching-replication,2021.2.3,59.98435428533836,
1,12,untimed,11,sitting,switch,congruant,dashed,triangle,yellow,stimuli/dashed-rectangle.png,stimuli/yellow-triangle.png,1,0,11,11,11,,,,,,,,,,,,,,,,,,,,,,,,,,,,,,,,,,,,,,,,,,,,,,,,,,,,,,,,,,,,,,,,,,,,,,,,,,,,,,,,,,,,,,,,,,,,,,,,,,,,,,,,,146.45919108390808,None,,,,,,,,,,,,,,,,,,,,,,,,,,,,,,,,,,,,,,,,,,,,,,,,,,,8003,001,11,2021_Nov_05_1033,task-switching-replication,2021.2.3,59.98435428533836,
,,,11,,,,,,,,,,,,,,,,,,,,,,,,,,,,,,,,,,,,,,,,,,,,,,,,,,,,,,,,,,,,,,,,,,,,,,,,,,,,,,,,,,,,,,,,,,,,,,,,,,,,,,,,,,,,,,,,,,,,,,,,,,,,,,,,146.65666699409485,None,2,8.318335056304932,146.65666699409485,None,,,,,,,,,,,,,,,,,,,,,,,,,,,,,,,,,,,,,8003,001,11,2021_Nov_05_1033,task-switching-replication,2021.2.3,59.98435428533836,
,,,11,,,,,,,,,,,,,,,,,,,,,,,,,,,,,,,,,,,,,,,,,,,,,,,,,,,,,,,,,,,,,,,,,,,,,,,,,,,,,,,,,,,,,,,,,,,,,,,,,,,,,,,,,,,,,,,,,,,,,,,,,,,,,,,,,,,,,,155.10027885437012,None,2,29.201486825942993,155.10027885437012,None,,,,,,,,,,,,,,,,,,,,,,,,,,,,,,,8003,001,11,2021_Nov_05_1033,task-switching-replication,2021.2.3,59.98435428533836,
1,1,timed,11,sitting,buffer,buffer,solid,square,yellow,stimuli/solid-rectangle.png,stimuli/yellow-square.png,1,,,,,,,,,,,,,0,0,0,0,,,,,,,,,,,,,,,,,,,,,,,,,,,,,,,,,,,,,,,,,,,,,,,,,,,,,,,,,,,,,,,,,,,,,,,,,,,,,,,,,,,1636126563.7706816,,,,,,,,,,186.22424602508545,None,,,,,,,,,,,,,,,,,,,,,184.4454960823059,None,185.43487787246704,None,1,1,0.6731038093566895,185.43487787246704,None,,,,,,,,,,,,,,,,,,,,,,8003,001,11,2021_Nov_05_1033,task-switching-replication,2021.2.3,59.98435428533836,
1,2,timed,11,sitting,noswitch,congruant,solid,triangle,yellow,stimuli/solid-rectangle.png,stimuli/yellow-triangle.png,1,,,,,,,,,,,,,0,1,1,1,,,,,,,,,,,,,,,,,,,,,,,,,,,,,,,,,,,,,,,,,,,,,,,,,,,,,,,,,,,,,,,,,,,,,,,,,,,,,,,,,,,1636126565.601762,,,,,,,,,,188.0552179813385,None,,,,,,,,,,,,,,,,,,,,,186.4543480873108,None,187.44377207756042,None,1,1,0.5057249069213867,187.44377207756042,None,,,,,,,,,,,,,,,,,,,,,,8003,001,11,2021_Nov_05_1033,task-switching-replication,2021.2.3,59.98435428533836,
1,3,timed,11,sitting,noswitch,incongruant,solid,square,blue,stimuli/solid-rectangle.png,stimuli/blue-square.png,2,,,,,,,,,,,,,0,2,2,2,,,,,,,,,,,,,,,,,,,,,,,,,,,,,,,,,,,,,,,,,,,,,,,,,,,,,,,,,,,,,,,,,,,,,,,,,,,,,,,,,,,1636126567.3142447,,,,,,,,,,189.76783990859985,None,,,,,,,,,,,,,,,,,,,,,188.28444290161133,None,189.27461504936218,None,2,1,0.3820960521697998,189.27461504936218,None,,,,,,,,,,,,,,,,,,,,,,8003,001,11,2021_Nov_05_1033,task-switching-replication,2021.2.3,59.98435428533836,
1,4,timed,11,sitting,noswitch,congruant,solid,square,blue,stimuli/solid-rectangle.png,stimuli/blue-square.png,2,,,,,,,,,,,,,0,3,3,3,,,,,,,,,,,,,,,,,,,,,,,,,,,,,,,,,,,,,,,,,,,,,,,,,,,,,,,,,,,,,,,,,,,,,,,,,,,,,,,,,,,1636126569.3221881,,,,,,,,,,191.77547788619995,None,,,,,,,,,,,,,,,,,,,,,189.99717092514038,None,190.98636388778687,None,2,1,0.6513509750366211,190.98636388778687,None,,,,,,,,,,,,,,,,,,,,,,8003,001,11,2021_Nov_05_1033,task-switching-replication,2021.2.3,59.98435428533836,
1,5,timed,11,sitting,noswitch,incongruant,solid,triangle,yellow,stimuli/solid-rectangle.png,stimuli/yellow-triangle.png,1,,,,,,,,,,,,,0,4,4,4,,,,,,,,,,,,,,,,,,,,,,,,,,,,,,,,,,,,,,,,,,,,,,,,,,,,,,,,,,,,,,,,,,,,,,,,,,,,,,,,,,,1636126571.15739,,,,,,,,,,193.61005401611328,None,,,,,,,,,,,,,,,,,,,,,192.00457096099854,None,192.99537897109985,None,1,1,0.45125794410705566,192.99537897109985,None,,,,,,,,,,,,,,,,,,,,,,8003,001,11,2021_Nov_05_1033,task-switching-replication,2021.2.3,59.98435428533836,
1,6,timed,11,sitting,noswitch,congruant,solid,square,yellow,stimuli/solid-rectangle.png,stimuli/yellow-square.png,1,,,,,,,,,,,,,0,5,5,5,,,,,,,,,,,,,,,,,,,,,,,,,,,,,,,,,,,,,,,,,,,,,,,,,,,,,,,,,,,,,,,,,,,,,,,,,,,,,,,,,,,1636126572.8696668,,,,,,,,,,195.3229968547821,None,,,,,,,,,,,,,,,,,,,,,193.83954501152039,None,194.82983803749084,None,1,1,0.37355685234069824,194.82983803749084,None,,,,,,,,,,,,,,,,,,,,,,8003,001,11,2021_Nov_05_1033,task-switching-replication,2021.2.3,59.98435428533836,
1,7,timed,11,sitting,switch,congruant,dashed,triangle,blue,stimuli/dashed-rectangle.png,stimuli/blue-triangle.png,1,,,,,,,,,,,,,0,6,6,6,,,,,0,0,0,0,,,,,,,,,,,,,,,,,,,,,,,,,,,,,,,,,,,,,,,,,,,,,,,,,,,,,,,,,,,,,,,,,,,,,,,,,,,1636126575.1156752,,,,,,,,,,,,,,,,197.54099702835083,198.55892705917358,197.57333493232727,None,,,,,,,,,,,,,195.5521559715271,None,196.54205107688904,None,2,0,0.8876547813415527,196.54205107688904,None,,,,,,,,,,,,,,,,,,,,,,8003,001,11,2021_Nov_05_1033,task-switching-replication,2021.2.3,59.98435428533836,
1,7,timed,11,sitting,switch,congruant,dashed,triangle,blue,stimuli/dashed-rectangle.png,stimuli/blue-triangle.png,1,,,,,,,,,,,,,0,6,6,6,,,,,,,,,,,,,,,,,,,,,,,,,,,,,,,,,,,,,,,,,,,,,,,,,,,,,,,,,,,,,,,,,,,,,,,,,,,,,,,,,,,,,,,,,,,,,202.60231399536133,None,,,,,,,,,,,,,,,,,,,,,,,,,,,,,,,,,,,,,,,,,,,,,,,,,,,8003,001,11,2021_Nov_05_1033,task-switching-replication,2021.2.3,59.98435428533836,
1,8,timed,11,sitting,switch,incongruant,solid,square,blue,stimuli/solid-rectangle.png,stimuli/blue-square.png,2,,,,,,,,,,,,,0,7,7,7,,,,,,,,,,,,,,,,,,,,,,,,,,,,,,,,,,,,,,,,,,,,,,,,,,,,,,,,,,,,,,,,,,,,,,,,,,,,,,,,,,,1636126582.2438133,,,,,,,,,,204.6971299648285,None,,,,,,,,,,,,,,,,,,,,,202.79904890060425,None,203.7892689704895,None,2,1,0.7783429622650146,203.7892689704895,None,,,,,,,,,,,,,,,,,,,,,,8003,001,11,2021_Nov_05_1033,task-switching-replication,2021.2.3,59.98435428533836,
1,9,timed,11,sitting,switch,congruant,dashed,square,blue,stimuli/dashed-rectangle.png,stimuli/blue-square.png,2,,,,,,,,,,,,,0,8,8,8,,,,,,,,,,,,,,,,,,,,,,,,,,,,,,,,,,,,,,,,,,,,,,,,,,,,,,,,,,,,,,,,,,,,,,,,,,,,,,,,,,,1636126583.9562244,,,,,,,,,,206.4095048904419,None,,,,,,,,,,,,,,,,,,,,,204.92665791511536,None,205.91642498970032,None,2,1,0.3401789665222168,205.91642498970032,None,,,,,,,,,,,,,,,,,,,,,,8003,001,11,2021_Nov_05_1033,task-switching-replication,2021.2.3,59.98435428533836,
1,10,timed,11,sitting,noswitch,congruant,dashed,square,blue,stimuli/dashed-rectangle.png,stimuli/blue-square.png,2,,,,,,,,,,,,,0,9,9,9,,,,,,,,,,,,,,,,,,,,,,,,,,,,,,,,,,,,,,,,,,,,,,,,,,,,,,,,,,,,,,,,,,,,,,,,,,,,,,,,,,,1636126585.7272153,,,,,,,,,,208.18080806732178,None,,,,,,,,,,,,,,,,,,,,,206.63906908035278,None,207.62839603424072,None,2,1,0.4521298408508301,207.62839603424072,None,,,,,,,,,,,,,,,,,,,,,,8003,001,11,2021_Nov_05_1033,task-switching-replication,2021.2.3,59.98435428533836,
1,11,timed,11,sitting,switch,incongruant,solid,triangle,yellow,stimuli/solid-rectangle.png,stimuli/yellow-triangle.png,1,,,,,,,,,,,,,0,10,10,10,,,,,,,,,,,,,,,,,,,,,,,,,,,,,,,,,,,,,,,,,,,,,,,,,,,,,,,,,,,,,,,,,,,,,,,,,,,,,,,,,,,1636126587.681103,,,,,,,,,,210.1336829662323,None,,,,,,,,,,,,,,,,,,,,,208.41003608703613,None,209.39935398101807,None,1,1,0.6108601093292236,209.39935398101807,None,,,,,,,,,,,,,,,,,,,,,,8003,001,11,2021_Nov_05_1033,task-switching-replication,2021.2.3,59.98435428533836,
1,12,timed,11,sitting,switch,congruant,dashed,triangle,yellow,stimuli/dashed-rectangle.png,stimuli/yellow-triangle.png,1,,,,,,,,,,,,,0,11,11,11,,,,,,,,,,,,,,,,,,,,,,,,,,,,,,,,,,,,,,,,,,,,,,,,,,,,,,,,,,,,,,,,,,,,,,,,,,,,,,,,,,,1636126589.3367403,,,,,,,,,,211.79022192955017,None,,,,,,,,,,,,,,,,,,,,,210.36299300193787,None,211.35610389709473,None,1,1,0.3231501579284668,211.35610389709473,None,,,,,,,,,,,,,,,,,,,,,,8003,001,11,2021_Nov_05_1033,task-switching-replication,2021.2.3,59.98435428533836,
1,13,timed,11,sitting,switch,incongruant,solid,triangle,blue,stimuli/solid-rectangle.png,stimuli/blue-triangle.png,2,,,,,,,,,,,,,0,12,12,12,,,,,,,,,,,,,,,,,,,,,,,,,,,,,,,,,,,,,,,,,,,,,,,,,,,,,,,,,,,,,,,,,,,,,,,,,,,,,,,,,,,1636126591.0494406,,,,,,,,,,213.50200295448303,None,,,,,,,,,,,,,,,,,,,,,212.01955103874207,None,213.00934600830078,None,2,1,0.3443319797515869,213.00934600830078,None,,,,,,,,,,,,,,,,,,,,,,8003,001,11,2021_Nov_05_1033,task-switching-replication,2021.2.3,59.98435428533836,
1,14,timed,11,sitting,switch,congruant,dashed,square,blue,stimuli/dashed-rectangle.png,stimuli/blue-square.png,2,,,,,,,,,,,,,0,13,13,13,,,,,,,,,,,,,,,,,,,,,,,,,,,,,,,,,,,,,,,,,,,,,,,,,,,,,,,,,,,,,,,,,,,,,,,,,,,,,,,,,,,1636126592.7611141,,,,,,,,,,215.21510791778564,None,,,,,,,,,,,,,,,,,,,,,213.73159289360046,None,214.7211458683014,None,2,1,0.3432140350341797,214.7211458683014,None,,,,,,,,,,,,,,,,,,,,,,8003,001,11,2021_Nov_05_1033,task-switching-replication,2021.2.3,59.98435428533836,
1,15,timed,11,sitting,switch,congruant,solid,triangle,blue,stimuli/solid-rectangle.png,stimuli/blue-triangle.png,2,,,,,,,,,,,,,0,14,14,14,0,0,0,0,,,,,,,,,,,,,,,,,,,,,,,,,,,,,,,,,,,,,,,,,,,,,,,,,,,,,,,,,,,,,,,,,,,,,,,,,,,,,,,1636126595.011486,,,,,,,,,,,,217.43675589561462,218.4553759098053,217.46869492530823,None,,,,,,,,,,,,,,,,,215.44513607025146,None,216.4363989830017,None,1,0,0.8890869617462158,216.4363989830017,None,,,,,,,,,,,,,,,,,,,,,,8003,001,11,2021_Nov_05_1033,task-switching-replication,2021.2.3,59.98435428533836,
1,15,timed,11,sitting,switch,congruant,solid,triangle,blue,stimuli/solid-rectangle.png,stimuli/blue-triangle.png,2,,,,,,,,,,,,,0,14,14,14,,,,,,,,,,,,,,,,,,,,,,,,,,,,,,,,,,,,,,,,,,,,,,,,,,,,,,,,,,,,,,,,,,,,,,,,,,,,,,,,,,,,,,,,,,,,,222.4664990901947,None,,,,,,,,,,,,,,,,,,,,,,,,,,,,,,,,,,,,,,,,,,,,,,,,,,,8003,001,11,2021_Nov_05_1033,task-switching-replication,2021.2.3,59.98435428533836,
1,16,timed,11,sitting,switch,incongruant,dashed,triangle,yellow,stimuli/dashed-rectangle.png,stimuli/yellow-triangle.png,1,,,,,,,,,,,,,0,15,15,15,,,,,,,,,,,,,,,,,,,,,,,,,,,,,,,,,,,,,,,,,,,,,,,,,,,,,,,,,,,,,,,,,,,,,,,,,,,,,,,,,,,1636126602.3170612,,,,,,,,,,224.77012395858765,None,,,,,,,,,,,,,,,,,,,,,222.6954300403595,None,223.68532395362854,None,1,1,0.9773080348968506,223.68532395362854,None,,,,,,,,,,,,,,,,,,,,,,8003,001,11,2021_Nov_05_1033,task-switching-replication,2021.2.3,59.98435428533836,
1,17,timed,11,sitting,noswitch,incongruant,dashed,square,yellow,stimuli/dashed-rectangle.png,stimuli/yellow-square.png,2,,,,,,,,,,,,,0,16,16,16,,,,,,,,,,,,,,,,,,,,,,,,,,,,,,,,,,,,,,,,,,,,,,,,,,,,,,,,,,,,,,,,,,,,,,,,,,,,,,,,,,,1636126604.2065353,,,,,,,,,,226.660001039505,None,,,,,,,,,,,,,,,,,,,,,224.99949407577515,None,225.98913097381592,None,2,1,0.5583369731903076,225.98913097381592,None,,,,,,,,,,,,,,,,,,,,,,8003,001,11,2021_Nov_05_1033,task-switching-replication,2021.2.3,59.98435428533836,
1,18,timed,11,sitting,noswitch,incongruant,dashed,triangle,blue,stimuli/dashed-rectangle.png,stimuli/blue-triangle.png,1,,,,,,,,,,,,,0,17,17,17,,,,,,,,,,,,,,,,,,,,,,,,,,,,,,,,,,,,,,,,,,,,,,,,,,,,,,,,,,,,,,,,,,,,,,,,,,,,,,,,,,,1636126605.921889,,,,,,,,,,228.37443685531616,None,,,,,,,,,,,,,,,,,,,,,226.88937306404114,None,227.879399061203,None,1,1,0.36159491539001465,227.879399061203,None,,,,,,,,,,,,,,,,,,,,,,8003,001,11,2021_Nov_05_1033,task-switching-replication,2021.2.3,59.98435428533836,
1,19,timed,11,sitting,switch,incongruant,solid,triangle,blue,stimuli/solid-rectangle.png,stimuli/blue-triangle.png,2,,,,,,,,,,,,,0,18,18,18,,,,,,,,,,,,,,,,,,,,,,,,,,,,,,,,,,,,,,,,,,,,,,,,,,,,,,,,,,,,,,,,,,,,,,,,,,,,,,,,,,,1636126608.1711116,,,,,,,,,,230.6243760585785,None,,,,,,,,,,,,,,,,,,,,,228.60376906394958,None,229.5943479537964,None,2,1,0.8960781097412109,229.5943479537964,None,,,,,,,,,,,,,,,,,,,,,,8003,001,11,2021_Nov_05_1033,task-switching-replication,2021.2.3,59.98435428533836,
1,20,timed,11,sitting,noswitch,incongruant,solid,square,yellow,stimuli/solid-rectangle.png,stimuli/yellow-square.png,1,,,,,,,,,,,,,0,19,19,19,,,,,,,,,,,,,,,,,,,,,,,,,,,,,,,,,,,,,,,,,,,,,,,,,,,,,,,,,,,,,,,,,,,,,,,,,,,,,,,,,,,1636126610.6592658,,,,,,,,,,233.1116759777069,None,,,,,,,,,,,,,,,,,,,,,230.85362887382507,None,231.84434008598328,None,1,1,1.1438658237457275,231.84434008598328,None,,,,,,,,,,,,,,,,,,,,,,8003,001,11,2021_Nov_05_1033,task-switching-replication,2021.2.3,59.98435428533836,
1,21,timed,11,sitting,switch,incongruant,dashed,square,yellow,stimuli/dashed-rectangle.png,stimuli/yellow-square.png,2,,,,,,,,,,,,,0,20,20,20,,,,,,,,,,,,,,,,,,,,,,,,,,,,,,,,,,,,,,,,,,,,,,,,,,,,,,,,,,,,,,,,,,,,,,,,,,,,,,,,,,,1636126612.5526721,,,,,,,,,,235.0053129196167,None,,,,,,,,,,,,,,,,,,,,,233.34125685691833,None,234.33118796348572,None,2,1,0.5502810478210449,234.33118796348572,None,,,,,,,,,,,,,,,,,,,,,,8003,001,11,2021_Nov_05_1033,task-switching-replication,2021.2.3,59.98435428533836,
1,22,timed,11,sitting,noswitch,congruant,dashed,square,yellow,stimuli/dashed-rectangle.png,stimuli/yellow-square.png,2,,,,,,,,,,,,,0,21,21,21,,,,,,,,,,,,,,,,,,,,,,,,,,,,,,,,,,,,,,,,,,,,,,,,,,,,,,,,,,,,,,,,,,,,,,,,,,,,,,,,,,,1636126614.264572,,,,,,,,,,236.71786904335022,None,,,,,,,,,,,,,,,,,,,,,235.2348759174347,None,236.2246799468994,None,2,1,0.37350010871887207,236.2246799468994,None,,,,,,,,,,,,,,,,,,,,,,8003,001,11,2021_Nov_05_1033,task-switching-replication,2021.2.3,59.98435428533836,
1,23,timed,11,sitting,noswitch,incongruant,dashed,triangle,yellow,stimuli/dashed-rectangle.png,stimuli/yellow-triangle.png,1,,,,,,,,,,,,,0,22,22,22,,,,,,,,,,,,,,,,,,,,,,,,,,,,,,,,,,,,,,,,,,,,,,,,,,,,,,,,,,,,,,,,,,,,,,,,,,,,,,,,,,,1636126615.917192,,,,,,,,,,238.37084889411926,None,,,,,,,,,,,,,,,,,,,,,236.94702196121216,None,237.93687796592712,None,1,1,0.3269040584564209,237.93687796592712,None,,,,,,,,,,,,,,,,,,,,,,8003,001,11,2021_Nov_05_1033,task-switching-replication,2021.2.3,59.98435428533836,
1,24,timed,11,sitting,noswitch,congruant,dashed,triangle,blue,stimuli/dashed-rectangle.png,stimuli/blue-triangle.png,1,,,,,,,,,,,,,0,23,23,23,,,,,,,,,,,,,,,,,,,,,,,,,,,,,,,,,,,,,,,,,,,,,,,,,,,,,,,,,,,,,,,,,,,,,,,,,,,,,,,,,,,1636126617.631172,,,,,,,,,,240.0845959186554,None,,,,,,,,,,,,,,,,,,,,,238.60025000572205,None,239.59118485450745,None,1,1,0.34494590759277344,239.59118485450745,None,,,,,,,,,,,,,,,,,,,,,,8003,001,11,2021_Nov_05_1033,task-switching-replication,2021.2.3,59.98435428533836,
1,1,experiment,11,sitting,buffer,buffer,solid,triangle,blue,stimuli/solid-rectangle.png,stimuli/blue-triangle.png,2,,,,,,,,,,,,,,,,,,,,,,,,,0,0,0,0,0,0,0,0,0,0,0,0,0,0,0,0,,,,,240.32795691490173,None,1,5.294094800949097,240.32795691490173,None,,,,,,,,,,,,,,,,,,,,,,,,,,,,,,,,,,,,,,,,,,,,,,,,,1636126635.0530016,,,,,,,,,,,,257.47822308540344,258.49733996391296,257.51158595085144,None,,,,,,,,,,,,,,,,,,,,,,,,,,245.7486219406128,None,1,3.2874321937561035,245.7486219406128,None,249.15901708602905,None,2,6.164298057556152,249.15901708602905,None,255.48943090438843,None,256.48013401031494,None,1,0,0.9155030250549316,256.48013401031494,None,8003,001,11,2021_Nov_05_1033,task-switching-replication,2021.2.3,59.98435428533836,
1,1,experiment,11,sitting,buffer,buffer,solid,triangle,blue,stimuli/solid-rectangle.png,stimuli/blue-triangle.png,2,,,,,,,,,,,,,,,,,,,,,,,,,0,0,0,0,0,0,0,0,0,0,0,0,,,,,,,,,,,,,,,,,,,,,,,,,,,,,,,,,,,,,,,,,,,,,,,,,,,,,,,,,,,,,,,,,,,,,,,,,262.50982308387756,None,,,,,,,,,,,,,,,,,,,,,,,,,,,,,,,,,,,,,,,,,,,,,,,,,,,8003,001,11,2021_Nov_05_1033,task-switching-replication,2021.2.3,59.98435428533836,
1,2,experiment,11,sitting,switch,congruant,dashed,square,blue,stimuli/dashed-rectangle.png,stimuli/blue-square.png,2,,,,,,,,,,,,,,,,,,,,,,,,,0,0,0,0,0,0,0,0,0,1,1,1,,,,,0,0,0,0,,,,,,,,,,,,,,,,,,,,,,,,,,,,,,,,,,,,,,,,,,,,,,,,,,,,,,,1636126642.7757742,,,,,,,,,,,,,,,,265.21024050712583,266.26139092445374,265.24148392677307,None,,,,,,,,,,,,,,,,,,,,,,,,,,,,,,,,,,262.7393980026245,None,263.729229927063,None,None,0,,263.729229927063,None,8003,001,11,2021_Nov_05_1033,task-switching-replication,2021.2.3,59.98435428533836,
1,2,experiment,11,sitting,switch,congruant,dashed,square,blue,stimuli/dashed-rectangle.png,stimuli/blue-square.png,2,,,,,,,,,,,,,,,,,,,,,,,,,0,0,0,0,0,0,0,0,0,1,1,1,,,,,,,,,,,,,,,,,,,,,,,,,,,,,,,,,,,,,,,,,,,,,,,,,,,,,,,,,,,,,,,,,,,,,,,,,270.27004504203796,None,,,,,,,,,,,,,,,,,,,,,,,,,,,,,,,,,,,,,,,,,,,,,,,,,,,8003,001,11,2021_Nov_05_1033,task-switching-replication,2021.2.3,59.98435428533836,
1,3,experiment,11,sitting,switch,incongruant,solid,triangle,yellow,stimuli/solid-rectangle.png,stimuli/yellow-triangle.png,1,,,,,,,,,,,,,,,,,,,,,,,,,0,0,0,0,0,0,0,0,0,2,2,2,0,0,0,0,,,,,,,,,,,,,,,,,,,,,,,,,,,,,,,,,,,,,,,,,,,,,,,,,,,,,,,,,,,1636126650.5036366,,,,,,,,,,,,272.938069486618,273.98860788345337,272.9689738750458,None,,,,,,,,,,,,,,,,,,,,,,,,,,,,,,,,,,,,,,270.4666838645935,None,271.4563539028168,None,None,0,,271.4563539028168,None,8003,001,11,2021_Nov_05_1033,task-switching-replication,2021.2.3,59.98435428533836,
1,3,experiment,11,sitting,switch,incongruant,solid,triangle,yellow,stimuli/solid-rectangle.png,stimuli/yellow-triangle.png,1,,,,,,,,,,,,,,,,,,,,,,,,,0,0,0,0,0,0,0,0,0,2,2,2,,,,,,,,,,,,,,,,,,,,,,,,,,,,,,,,,,,,,,,,,,,,,,,,,,,,,,,,,,,,,,,,,,,,,,,,,277.96616291999817,None,,,,,,,,,,,,,,,,,,,,,,,,,,,,,,,,,,,,,,,,,,,,,,,,,,,8003,001,11,2021_Nov_05_1033,task-switching-replication,2021.2.3,59.98435428533836,
1,4,experiment,11,sitting,noswitch,incongruant,solid,square,blue,stimuli/solid-rectangle.png,stimuli/blue-square.png,2,,,,,,,,,,,,,,,,,,,,,,,,,0,0,0,0,0,0,0,0,0,3,3,3,0,0,0,0,,,,,,,,,,,,,,,,,,,,,,,,,,,,,,,,,,,,,,,,,,,,,,,,,,,,,,,,,,,1636126658.2327907,,,,,,,,,,,,280.6672445774078,281.6849539279938,280.6984179019928,None,,,,,,,,,,,,,,,,,,,,,,,,,,,,,,,,,,,,,,278.1953239440918,None,279.18517088890076,None,None,0,,279.18517088890076,None,8003,001,11,2021_Nov_05_1033,task-switching-replication,2021.2.3,59.98435428533836,
1,4,experiment,11,sitting,noswitch,incongruant,solid,square,blue,stimuli/solid-rectangle.png,stimuli/blue-square.png,2,,,,,,,,,,,,,,,,,,,,,,,,,0,0,0,0,0,0,0,0,0,3,3,3,,,,,,,,,,,,,,,,,,,,,,,,,,,,,,,,,,,,,,,,,,,,,,,,,,,,,,,,,,,,,,,,,,,,,,,,,285.72807788848877,None,,,,,,,,,,,,,,,,,,,,,,,,,,,,,,,,,,,,,,,,,,,,,,,,,,,8003,001,11,2021_Nov_05_1033,task-switching-replication,2021.2.3,59.98435428533836,
1,5,experiment,11,sitting,switch,incongruant,dashed,triangle,yellow,stimuli/dashed-rectangle.png,stimuli/yellow-triangle.png,1,,,,,,,,,,,,,,,,,,,,,,,,,0,0,0,0,0,0,0,0,0,4,4,4,,,,,0,0,0,0,,,,,,,,,,,,,,,,,,,,,,,,,,,,,,,,,,,,,,,,,,,,,,,,,,,,,,,1636126665.9620197,,,,,,,,,,,,,,,,288.396476650238,289.44779992103577,288.4279100894928,None,,,,,,,,,,,,,,,,,,,,,,,,,,,,,,,,,,285.9246850013733,None,286.91509103775024,None,None,0,,286.91509103775024,None,8003,001,11,2021_Nov_05_1033,task-switching-replication,2021.2.3,59.98435428533836,
1,5,experiment,11,sitting,switch,incongruant,dashed,triangle,yellow,stimuli/dashed-rectangle.png,stimuli/yellow-triangle.png,1,,,,,,,,,,,,,,,,,,,,,,,,,0,0,0,0,0,0,0,0,0,4,4,4,,,,,,,,,,,,,,,,,,,,,,,,,,,,,,,,,,,,,,,,,,,,,,,,,,,,,,,,,,,,,,,,,,,,,,,,,293.4546139240265,None,,,,,,,,,,,,,,,,,,,,,,,,,,,,,,,,,,,,,,,,,,,,,,,,,,,8003,001,11,2021_Nov_05_1033,task-switching-replication,2021.2.3,59.98435428533836,
1,6,experiment,11,sitting,noswitch,congruant,dashed,triangle,blue,stimuli/dashed-rectangle.png,stimuli/blue-triangle.png,1,,,,,,,,,,,,,,,,,,,,,,,,,0,0,0,0,0,0,0,0,0,5,5,5,,,,,0,0,0,0,,,,,,,,,,,,,,,,,,,,,,,,,,,,,,,,,,,,,,,,,,,,,,,,,,,,,,,1636126673.6891239,,,,,,,,,,,,,,,,296.12377252578733,297.17477893829346,296.15533208847046,None,,,,,,,,,,,,,,,,,,,,,,,,,,,,,,,,,,293.6514449119568,None,294.64215993881226,None,None,0,,294.64215993881226,None,8003,001,11,2021_Nov_05_1033,task-switching-replication,2021.2.3,59.98435428533836,
1,6,experiment,11,sitting,noswitch,congruant,dashed,triangle,blue,stimuli/dashed-rectangle.png,stimuli/blue-triangle.png,1,,,,,,,,,,,,,,,,,,,,,,,,,0,0,0,0,0,0,0,0,0,5,5,5,,,,,,,,,,,,,,,,,,,,,,,,,,,,,,,,,,,,,,,,,,,,,,,,,,,,,,,,,,,,,,,,,,,,,,,,,301.1830599308014,None,,,,,,,,,,,,,,,,,,,,,,,,,,,,,,,,,,,,,,,,,,,,,,,,,,,8003,001,11,2021_Nov_05_1033,task-switching-replication,2021.2.3,59.98435428533836,
1,7,experiment,11,sitting,noswitch,incongruant,dashed,square,yellow,stimuli/dashed-rectangle.png,stimuli/yellow-square.png,2,,,,,,,,,,,,,,,,,,,,,,,,,0,0,0,0,0,0,0,0,0,6,6,6,,,,,,,,,,,,,,,,,,,,,,,,,,,,,,,,,,,,,,,,,,,,,,,,,,,,,,,,,,,,,,,1636126680.707561,,,,,,,,,,303.1608989238739,None,,,,,,,,,,,,,,,,,,,,,,,,,,,,,,,,,,,,,,,,,,301.3800070285797,None,302.37134885787964,None,2,1,0.6463158130645752,302.37134885787964,None,8003,001,11,2021_Nov_05_1033,task-switching-replication,2021.2.3,59.98435428533836,
1,8,experiment,11,sitting,switch,congruant,solid,square,blue,stimuli/solid-rectangle.png,stimuli/blue-square.png,2,,,,,,,,,,,,,,,,,,,,,,,,,0,0,0,0,0,0,0,0,0,7,7,7,,,,,,,,,,,,,,,,,,,,,,,,,,,,,,,,,,,,,,,,,,,,,,,,,,,,,,,,,,,,,,,1636126682.719236,,,,,,,,,,305.17270493507385,None,,,,,,,,,,,,,,,,,,,,,,,,,,,,,,,,,,,,,,,,,,303.39042806625366,None,304.38180589675903,None,2,1,0.6488242149353027,304.38180589675903,None,8003,001,11,2021_Nov_05_1033,task-switching-replication,2021.2.3,59.98435428533836,
1,9,experiment,11,sitting,switch,congruant,dashed,square,yellow,stimuli/dashed-rectangle.png,stimuli/yellow-square.png,2,,,,,,,,,,,,,,,,,,,,,,,,,0,0,0,0,0,0,0,0,0,8,8,8,,,,,,,,,,,,,,,,,,,,,,,,,,,,,,,,,,,,,,,,,,,,,,,,,,,,,,,,,,,,,,,1636126684.5508642,,,,,,,,,,307.00421595573425,None,,,,,,,,,,,,,,,,,,,,,,,,,,,,,,,,,,,,,,,,,,305.4024438858032,None,306.3923399448395,None,2,1,0.4783961772918701,306.3923399448395,None,8003,001,11,2021_Nov_05_1033,task-switching-replication,2021.2.3,59.98435428533836,
1,10,experiment,11,sitting,switch,congruant,solid,triangle,blue,stimuli/solid-rectangle.png,stimuli/blue-triangle.png,2,,,,,,,,,,,,,,,,,,,,,,,,,0,0,0,0,0,0,0,0,0,9,9,9,,,,,,,,,,,,,,,,,,,,,,,,,,,,,,,,,,,,,,,,,,,,,,,,,,,,,,,,,,,,,,,1636126686.3231676,,,,,,,,,,308.7765738964081,None,,,,,,,,,,,,,,,,,,,,,,,,,,,,,,,,,,,,,,,,,,307.23366594314575,None,308.2241790294647,None,2,1,0.4295990467071533,308.2241790294647,None,8003,001,11,2021_Nov_05_1033,task-switching-replication,2021.2.3,59.98435428533836,
1,11,experiment,11,sitting,switch,incongruant,dashed,triangle,blue,stimuli/dashed-rectangle.png,stimuli/blue-triangle.png,1,,,,,,,,,,,,,,,,,,,,,,,,,0,0,0,0,0,0,0,0,0,10,10,10,,,,,,,,,,,,,,,,,,,,,,,,,,,,,,,,,,,,,,,,,,,,,,,,,,,,,,,,,,,,,,,1636126688.6345267,,,,,,,,,,311.08746695518494,None,,,,,,,,,,,,,,,,,,,,,,,,,,,,,,,,,,,,,,,,,,309.0060119628906,None,309.99783992767334,None,1,1,0.9258711338043213,309.99783992767334,None,8003,001,11,2021_Nov_05_1033,task-switching-replication,2021.2.3,59.98435428533836,
1,12,experiment,11,sitting,noswitch,incongruant,dashed,square,yellow,stimuli/dashed-rectangle.png,stimuli/yellow-square.png,2,,,,,,,,,,,,,,,,,,,,,,,,,0,0,0,0,0,0,0,0,0,11,11,11,,,,,,,,,,,,,,,,,,,,,,,,,,,,,,,,,,,,,,,,,,,,,,,,,,,,,,,,,,,,,,,1636126690.585088,,,,,,,,,,313.0379960536957,None,,,,,,,,,,,,,,,,,,,,,,,,,,,,,,,,,,,,,,,,,,311.31710600852966,None,312.30750703811646,None,2,1,0.6159999370574951,312.30750703811646,None,8003,001,11,2021_Nov_05_1033,task-switching-replication,2021.2.3,59.98435428533836,
1,13,experiment,11,sitting,switch,congruant,solid,triangle,blue,stimuli/solid-rectangle.png,stimuli/blue-triangle.png,2,,,,,,,,,,,,,,,,,,,,,,,,,0,0,0,0,0,0,0,0,0,12,12,12,0,0,0,0,,,,,,,,,,,,,,,,,,,,,,,,,,,,,,,,,,,,,,,,,,,,,,,,,,,,,,,,,,,1636126693.1273935,,,,,,,,,,,,315.5526719093323,316.57041001319885,315.58443689346313,None,,,,,,,,,,,,,,,,,,,,,,,,,,,,,,,,,,,,,,313.26731300354004,None,314.25735688209534,None,1,0,1.1990199089050293,314.25735688209534,None,8003,001,11,2021_Nov_05_1033,task-switching-replication,2021.2.3,59.98435428533836,
1,13,experiment,11,sitting,switch,congruant,solid,triangle,blue,stimuli/solid-rectangle.png,stimuli/blue-triangle.png,2,,,,,,,,,,,,,,,,,,,,,,,,,0,0,0,0,0,0,0,0,0,12,12,12,,,,,,,,,,,,,,,,,,,,,,,,,,,,,,,,,,,,,,,,,,,,,,,,,,,,,,,,,,,,,,,,,,,,,,,,,320.5811049938202,None,,,,,,,,,,,,,,,,,,,,,,,,,,,,,,,,,,,,,,,,,,,,,,,,,,,8003,001,11,2021_Nov_05_1033,task-switching-replication,2021.2.3,59.98435428533836,
1,14,experiment,11,sitting,switch,incongruant,dashed,triangle,yellow,stimuli/dashed-rectangle.png,stimuli/yellow-triangle.png,1,,,,,,,,,,,,,,,,,,,,,,,,,0,0,0,0,0,0,0,0,0,13,13,13,,,,,0,0,0,0,,,,,,,,,,,,,,,,,,,,,,,,,,,,,,,,,,,,,,,,,,,,,,,,,,,,,,,1636126700.8485215,,,,,,,,,,,,,,,,323.28292551040647,324.33430194854736,323.31433391571045,None,,,,,,,,,,,,,,,,,,,,,,,,,,,,,,,,,,320.810240983963,None,321.80041885375977,None,None,0,,321.80041885375977,None,8003,001,11,2021_Nov_05_1033,task-switching-replication,2021.2.3,59.98435428533836,
1,14,experiment,11,sitting,switch,incongruant,dashed,triangle,yellow,stimuli/dashed-rectangle.png,stimuli/yellow-triangle.png,1,,,,,,,,,,,,,,,,,,,,,,,,,0,0,0,0,0,0,0,0,0,13,13,13,,,,,,,,,,,,,,,,,,,,,,,,,,,,,,,,,,,,,,,,,,,,,,,,,,,,,,,,,,,,,,,,,,,,,,,,,328.3409628868103,None,,,,,,,,,,,,,,,,,,,,,,,,,,,,,,,,,,,,,,,,,,,,,,,,,,,8003,001,11,2021_Nov_05_1033,task-switching-replication,2021.2.3,59.98435428533836,
1,15,experiment,11,sitting,noswitch,congruant,dashed,triangle,yellow,stimuli/dashed-rectangle.png,stimuli/yellow-triangle.png,1,,,,,,,,,,,,,,,,,,,,,,,,,0,0,0,0,0,0,0,0,0,14,14,14,,,,,,,,,,,,,,,,,,,,,,,,,,,,,,,,,,,,,,,,,,,,,,,,,,,,,,,,,,,,,,,1636126707.566063,,,,,,,,,,330.01935505867004,None,,,,,,,,,,,,,,,,,,,,,,,,,,,,,,,,,,,,,,,,,,328.5375728607178,None,329.5264849662781,None,1,1,0.36187100410461426,329.5264849662781,None,8003,001,11,2021_Nov_05_1033,task-switching-replication,2021.2.3,59.98435428533836,
1,16,experiment,11,sitting,switch,congruant,solid,square,yellow,stimuli/solid-rectangle.png,stimuli/yellow-square.png,1,,,,,,,,,,,,,,,,,,,,,,,,,0,0,0,0,0,0,0,0,0,15,15,15,0,0,0,0,,,,,,,,,,,,,,,,,,,,,,,,,,,,,,,,,,,,,,,,,,,,,,,,,,,,,,,,,,,1636126710.1092744,,,,,,,,,,,,332.5344560146332,333.5528130531311,332.56769490242004,None,,,,,,,,,,,,,,,,,,,,,,,,,,,,,,,,,,,,,,330.24873995780945,None,331.2394070625305,None,2,0,1.2073547840118408,331.2394070625305,None,8003,001,11,2021_Nov_05_1033,task-switching-replication,2021.2.3,59.98435428533836,
1,16,experiment,11,sitting,switch,congruant,solid,square,yellow,stimuli/solid-rectangle.png,stimuli/yellow-square.png,1,,,,,,,,,,,,,,,,,,,,,,,,,0,0,0,0,0,0,0,0,0,15,15,15,,,,,,,,,,,,,,,,,,,,,,,,,,,,,,,,,,,,,,,,,,,,,,,,,,,,,,,,,,,,,,,,,,,,,,,,,337.56338906288147,None,,,,,,,,,,,,,,,,,,,,,,,,,,,,,,,,,,,,,,,,,,,,,,,,,,,8003,001,11,2021_Nov_05_1033,task-switching-replication,2021.2.3,59.98435428533836,
1,17,experiment,11,sitting,noswitch,congruant,solid,triangle,yellow,stimuli/solid-rectangle.png,stimuli/yellow-triangle.png,1,,,,,,,,,,,,,,,,,,,,,,,,,0,0,0,0,0,0,0,0,0,16,16,16,,,,,,,,,,,,,,,,,,,,,,,,,,,,,,,,,,,,,,,,,,,,,,,,,,,,,,,,,,,,,,,1636126717.3553243,,,,,,,,,,339.8087809085846,None,,,,,,,,,,,,,,,,,,,,,,,,,,,,,,,,,,,,,,,,,,337.79233407974243,None,338.78199005126953,None,1,1,0.9122838973999023,338.78199005126953,None,8003,001,11,2021_Nov_05_1033,task-switching-replication,2021.2.3,59.98435428533836,
1,18,experiment,11,sitting,switch,incongruant,dashed,square,blue,stimuli/dashed-rectangle.png,stimuli/blue-square.png,2,,,,,,,,,,,,,,,,,,,,,,,,,0,0,0,0,0,0,0,0,0,17,17,17,,,,,,,,,,,,,,,,,,,,,,,,,,,,,,,,,,,,,,,,,,,,,,,,,,,,,,,,,,,,,,,1636126719.3118637,,,,,,,,,,341.8257420063019,None,,,,,,,,,,,,,,,,,,,,,,,,,,,,,,,,,,,,,,,,,,340.03804087638855,None,341.0319859981537,None,2,1,0.5938150882720947,341.0319859981537,None,8003,001,11,2021_Nov_05_1033,task-switching-replication,2021.2.3,59.98435428533836,
1,19,experiment,11,sitting,noswitch,congruant,dashed,square,yellow,stimuli/dashed-rectangle.png,stimuli/yellow-square.png,2,,,,,,,,,,,,,,,,,,,,,,,,,0,0,0,0,0,0,0,0,0,18,18,18,,,,,,,,,,,,,,,,,,,,,,,,,,,,,,,,,,,,,,,,,,,,,,,,,,,,,,,,,,,,,,,1636126721.3756912,,,,,,,,,,343.8290309906006,None,,,,,,,,,,,,,,,,,,,,,,,,,,,,,,,,,,,,,,,,,,341.9906919002533,None,342.9802339076996,None,2,1,0.7291080951690674,342.9802339076996,None,8003,001,11,2021_Nov_05_1033,task-switching-replication,2021.2.3,59.98435428533836,
1,20,experiment,11,sitting,switch,incongruant,solid,square,yellow,stimuli/solid-rectangle.png,stimuli/yellow-square.png,1,,,,,,,,,,,,,,,,,,,,,,,,,0,0,0,0,0,0,0,0,0,19,19,19,,,,,,,,,,,,,,,,,,,,,,,,,,,,,,,,,,,,,,,,,,,,,,,,,,,,,,,,,,,,,,,1636126723.7996829,,,,,,,,,,346.25221586227417,None,,,,,,,,,,,,,,,,,,,,,,,,,,,,,,,,,,,,,,,,,,344.05842304229736,None,345.0484218597412,None,1,1,1.0555298328399658,345.0484218597412,None,8003,001,11,2021_Nov_05_1033,task-switching-replication,2021.2.3,59.98435428533836,
1,21,experiment,11,sitting,noswitch,congruant,solid,square,yellow,stimuli/solid-rectangle.png,stimuli/yellow-square.png,1,,,,,,,,,,,,,,,,,,,,,,,,,0,0,0,0,0,0,0,0,0,20,20,20,,,,,,,,,,,,,,,,,,,,,,,,,,,,,,,,,,,,,,,,,,,,,,,,,,,,,,,,,,,,,,,1636126725.511102,,,,,,,,,,347.96450686454773,None,,,,,,,,,,,,,,,,,,,,,,,,,,,,,,,,,,,,,,,,,,346.4818260669708,None,347.47147607803345,None,1,1,0.3467860221862793,347.47147607803345,None,8003,001,11,2021_Nov_05_1033,task-switching-replication,2021.2.3,59.98435428533836,
1,22,experiment,11,sitting,noswitch,congruant,solid,square,yellow,stimuli/solid-rectangle.png,stimuli/yellow-square.png,1,,,,,,,,,,,,,,,,,,,,,,,,,0,0,0,0,0,0,0,0,0,21,21,21,,,,,,,,,,,,,,,,,,,,,,,,,,,,,,,,,,,,,,,,,,,,,,,,,,,,,,,,,,,,,,,1636126727.2828295,,,,,,,,,,349.73629689216614,None,,,,,,,,,,,,,,,,,,,,,,,,,,,,,,,,,,,,,,,,,,348.1937050819397,None,349.183748960495,None,1,1,0.4043869972229004,349.183748960495,None,8003,001,11,2021_Nov_05_1033,task-switching-replication,2021.2.3,59.98435428533836,
1,23,experiment,11,sitting,noswitch,incongruant,solid,square,blue,stimuli/solid-rectangle.png,stimuli/blue-square.png,2,,,,,,,,,,,,,,,,,,,,,,,,,0,0,0,0,0,0,0,0,0,22,22,22,,,,,,,,,,,,,,,,,,,,,,,,,,,,,,,,,,,,,,,,,,,,,,,,,,,,,,,,,,,,,,,1636126728.9965174,,,,,,,,,,351.449147939682,None,,,,,,,,,,,,,,,,,,,,,,,,,,,,,,,,,,,,,,,,,,349.9654269218445,None,350.9551429748535,None,2,1,0.3551819324493408,350.9551429748535,None,8003,001,11,2021_Nov_05_1033,task-switching-replication,2021.2.3,59.98435428533836,
1,24,experiment,11,sitting,noswitch,congruant,solid,triangle,blue,stimuli/solid-rectangle.png,stimuli/blue-triangle.png,2,,,,,,,,,,,,,,,,,,,,,,,,,0,0,0,0,0,0,0,0,0,23,23,23,,,,,,,,,,,,,,,,,,,,,,,,,,,,,,,,,,,,,,,,,,,,,,,,,,,,,,,,,,,,,,,1636126730.5895019,,,,,,,,,,353.04298186302185,None,,,,,,,,,,,,,,,,,,,,,,,,,,,,,,,,,,,,,,,,,,351.67867708206177,None,352.6682209968567,None,2,1,0.2771589756011963,352.6682209968567,None,8003,001,11,2021_Nov_05_1033,task-switching-replication,2021.2.3,59.98435428533836,
1,25,experiment,11,sitting,switch,congruant,dashed,square,blue,stimuli/dashed-rectangle.png,stimuli/blue-square.png,2,,,,,,,,,,,,,,,,,,,,,,,,,0,0,0,0,0,0,0,0,0,24,24,24,,,,,,,,,,,,,,,,,,,,,,,,,,,,,,,,,,,,,,,,,,,,,,,,,,,,,,,,,,,,,,,1636126732.360523,,,,,,,,,,354.81382489204407,None,,,,,,,,,,,,,,,,,,,,,,,,,,,,,,,,,,,,,,,,,,353.27291893959045,None,354.26169085502625,None,2,1,0.4286360740661621,354.26169085502625,None,8003,001,11,2021_Nov_05_1033,task-switching-replication,2021.2.3,59.98435428533836,
1,26,experiment,11,sitting,noswitch,incongruant,dashed,triangle,yellow,stimuli/dashed-rectangle.png,stimuli/yellow-triangle.png,1,,,,,,,,,,,,,,,,,,,,,,,,,0,0,0,0,0,0,0,0,0,25,25,25,,,,,,,,,,,,,,,,,,,,,,,,,,,,,,,,,,,,,,,,,,,,,,,,,,,,,,,,,,,,,,,1636126734.3088615,,,,,,,,,,356.76147294044495,None,,,,,,,,,,,,,,,,,,,,,,,,,,,,,,,,,,,,,,,,,,355.04313588142395,None,356.0316050052643,None,1,1,0.581326961517334,356.0316050052643,None,8003,001,11,2021_Nov_05_1033,task-switching-replication,2021.2.3,59.98435428533836,
1,27,experiment,11,sitting,noswitch,congruant,dashed,triangle,blue,stimuli/dashed-rectangle.png,stimuli/blue-triangle.png,1,,,,,,,,,,,,,,,,,,,,,,,,,0,0,0,0,0,0,0,0,0,26,26,26,,,,,,,,,,,,,,,,,,,,,,,,,,,,,,,,,,,,,,,,,,,,,,,,,,,,,,,,,,,,,,,1636126736.2573466,,,,,,,,,,358.7106840610504,None,,,,,,,,,,,,,,,,,,,,,,,,,,,,,,,,,,,,,,,,,,356.9910349845886,None,357.9804539680481,None,1,1,0.6076719760894775,357.9804539680481,None,8003,001,11,2021_Nov_05_1033,task-switching-replication,2021.2.3,59.98435428533836,
1,28,experiment,11,sitting,switch,incongruant,solid,triangle,blue,stimuli/solid-rectangle.png,stimuli/blue-triangle.png,2,,,,,,,,,,,,,,,,,,,,,,,,,0,0,0,0,0,0,0,0,0,27,27,27,,,,,,,,,,,,,,,,,,,,,,,,,,,,,,,,,,,,,,,,,,,,,,,,,,,,,,,,,,,,,,,1636126737.9692905,,,,,,,,,,360.4223680496216,None,,,,,,,,,,,,,,,,,,,,,,,,,,,,,,,,,,,,,,,,,,358.9398829936981,None,359.9294810295105,None,2,1,0.3387179374694824,359.9294810295105,None,8003,001,11,2021_Nov_05_1033,task-switching-replication,2021.2.3,59.98435428533836,
1,29,experiment,11,sitting,switch,incongruant,dashed,triangle,yellow,stimuli/dashed-rectangle.png,stimuli/yellow-triangle.png,1,,,,,,,,,,,,,,,,,,,,,,,,,0,0,0,0,0,0,0,0,0,28,28,28,,,,,,,,,,,,,,,,,,,,,,,,,,,,,,,,,,,,,,,,,,,,,,,,,,,,,,,,,,,,,,,1636126739.9208748,,,,,,,,,,362.373507976532,None,,,,,,,,,,,,,,,,,,,,,,,,,,,,,,,,,,,,,,,,,,360.6516659259796,None,361.6422700881958,None,1,1,0.602924108505249,361.6422700881958,None,8003,001,11,2021_Nov_05_1033,task-switching-replication,2021.2.3,59.98435428533836,
1,30,experiment,11,sitting,switch,congruant,solid,triangle,yellow,stimuli/solid-rectangle.png,stimuli/yellow-triangle.png,1,,,,,,,,,,,,,,,,,,,,,,,,,0,0,0,0,0,0,0,0,0,29,29,29,,,,,,,,,,,,,,,,,,,,,,,,,,,,,,,,,,,,,,,,,,,,,,,,,,,,,,,,,,,,,,,1636126742.1070971,,,,,,,,,,364.5604588985443,None,,,,,,,,,,,,,,,,,,,,,,,,,,,,,,,,,,,,,,,,,,362.6029999256134,None,363.5930109024048,None,1,1,0.8231232166290283,363.5930109024048,None,8003,001,11,2021_Nov_05_1033,task-switching-replication,2021.2.3,59.98435428533836,
1,31,experiment,11,sitting,noswitch,congruant,solid,square,yellow,stimuli/solid-rectangle.png,stimuli/yellow-square.png,1,,,,,,,,,,,,,,,,,,,,,,,,,0,0,0,0,0,0,0,0,0,30,30,30,0,0,0,0,,,,,,,,,,,,,,,,,,,,,,,,,,,,,,,,,,,,,,,,,,,,,,,,,,,,,,,,,,,1636126744.1190996,,,,,,,,,,,,366.5443890094757,367.5634288787842,366.57671999931335,None,,,,,,,,,,,,,,,,,,,,,,,,,,,,,,,,,,,,,,364.789598941803,None,365.7791509628296,None,2,0,0.6340999603271484,365.7791509628296,None,8003,001,11,2021_Nov_05_1033,task-switching-replication,2021.2.3,59.98435428533836,
1,31,experiment,11,sitting,noswitch,congruant,solid,square,yellow,stimuli/solid-rectangle.png,stimuli/yellow-square.png,1,,,,,,,,,,,,,,,,,,,,,,,,,0,0,0,0,0,0,0,0,0,30,30,30,,,,,,,,,,,,,,,,,,,,,,,,,,,,,,,,,,,,,,,,,,,,,,,,,,,,,,,,,,,,,,,,,,,,,,,,,371.5759868621826,None,,,,,,,,,,,,,,,,,,,,,,,,,,,,,,,,,,,,,,,,,,,,,,,,,,,8003,001,11,2021_Nov_05_1033,task-switching-replication,2021.2.3,59.98435428533836,
1,32,experiment,11,sitting,noswitch,incongruant,solid,triangle,blue,stimuli/solid-rectangle.png,stimuli/blue-triangle.png,2,,,,,,,,,,,,,,,,,,,,,,,,,0,0,0,0,0,0,0,0,0,31,31,31,,,,,,,,,,,,,,,,,,,,,,,,,,,,,,,,,,,,,,,,,,,,,,,,,,,,,,,,,,,,,,,1636126751.3686814,,,,,,,,,,373.82215905189514,None,,,,,,,,,,,,,,,,,,,,,,,,,,,,,,,,,,,,,,,,,,371.80535101890564,None,372.7952299118042,None,2,1,0.8958909511566162,372.7952299118042,None,8003,001,11,2021_Nov_05_1033,task-switching-replication,2021.2.3,59.98435428533836,
1,33,experiment,11,sitting,noswitch,congruant,solid,square,blue,stimuli/solid-rectangle.png,stimuli/blue-square.png,2,,,,,,,,,,,,,,,,,,,,,,,,,0,0,0,0,0,0,0,0,0,32,32,32,,,,,,,,,,,,,,,,,,,,,,,,,,,,,,,,,,,,,,,,,,,,,,,,,,,,,,,,,,,,,,,1636126753.377012,,,,,,,,,,375.8304889202118,None,,,,,,,,,,,,,,,,,,,,,,,,,,,,,,,,,,,,,,,,,,374.0514018535614,None,375.04097604751587,None,2,1,0.6382689476013184,375.04097604751587,None,8003,001,11,2021_Nov_05_1033,task-switching-replication,2021.2.3,59.98435428533836,
1,34,experiment,11,sitting,noswitch,incongruant,solid,square,yellow,stimuli/solid-rectangle.png,stimuli/yellow-square.png,1,,,,,,,,,,,,,,,,,,,,,,,,,0,0,0,0,0,0,0,0,0,33,33,33,,,,,,,,,,,,,,,,,,,,,,,,,,,,,,,,,,,,,,,,,,,,,,,,,,,,,,,,,,,,,,,1636126755.8627203,,,,,,,,,,378.31549096107483,None,,,,,,,,,,,,,,,,,,,,,,,,,,,,,,,,,,,,,,,,,,376.05971908569336,None,377.04972791671753,None,1,1,1.137166976928711,377.04972791671753,None,8003,001,11,2021_Nov_05_1033,task-switching-replication,2021.2.3,59.98435428533836,
1,35,experiment,11,sitting,switch,incongruant,dashed,square,blue,stimuli/dashed-rectangle.png,stimuli/blue-square.png,2,,,,,,,,,,,,,,,,,,,,,,,,,0,0,0,0,0,0,0,0,0,34,34,34,,,,,,,,,,,,,,,,,,,,,,,,,,,,,,,,,,,,,,,,,,,,,,,,,,,,,,,,,,,,,,,1636126758.2860608,,,,,,,,,,380.738872051239,None,,,,,,,,,,,,,,,,,,,,,,,,,,,,,,,,,,,,,,,,,,378.5450949668884,None,379.53506302833557,None,2,1,1.0453460216522217,379.53506302833557,None,8003,001,11,2021_Nov_05_1033,task-switching-replication,2021.2.3,59.98435428533836,
1,36,experiment,11,sitting,noswitch,congruant,dashed,square,yellow,stimuli/dashed-rectangle.png,stimuli/yellow-square.png,2,,,,,,,,,,,,,,,,,,,,,,,,,0,0,0,0,0,0,0,0,0,35,35,35,,,,,0,0,0,0,,,,,,,,,,,,,,,,,,,,,,,,,,,,,,,,,,,,,,,,,,,,,,,,,,,,,,,1636126760.2945807,,,,,,,,,,,,,,,,382.71980810165405,383.73860788345337,382.7530679702759,None,,,,,,,,,,,,,,,,,,,,,,,,,,,,,,,,,,380.96838092803955,None,381.95844292640686,None,1,0,0.6832880973815918,381.95844292640686,None,8003,001,11,2021_Nov_05_1033,task-switching-replication,2021.2.3,59.98435428533836,
1,36,experiment,11,sitting,noswitch,congruant,dashed,square,yellow,stimuli/dashed-rectangle.png,stimuli/yellow-square.png,2,,,,,,,,,,,,,,,,,,,,,,,,,0,0,0,0,0,0,0,0,0,35,35,35,,,,,,,,,,,,,,,,,,,,,,,,,,,,,,,,,,,,,,,,,,,,,,,,,,,,,,,,,,,,,,,,,,,,,,,,,387.74895095825195,None,,,,,,,,,,,,,,,,,,,,,,,,,,,,,,,,,,,,,,,,,,,,,,,,,,,8003,001,11,2021_Nov_05_1033,task-switching-replication,2021.2.3,59.98435428533836,
1,37,experiment,11,sitting,noswitch,incongruant,dashed,triangle,blue,stimuli/dashed-rectangle.png,stimuli/blue-triangle.png,1,,,,,,,,,,,,,,,,,,,,,,,,,0,0,0,0,0,0,0,0,0,36,36,36,,,,,0,0,0,0,,,,,,,,,,,,,,,,,,,,,,,,,,,,,,,,,,,,,,,,,,,,,,,,,,,,,,,1636126767.4219897,,,,,,,,,,,,,,,,389.84703302383423,390.86669087409973,389.8805420398712,None,,,,,,,,,,,,,,,,,,,,,,,,,,,,,,,,,,387.97826290130615,None,388.96773290634155,None,2,0,0.8094081878662109,388.96773290634155,None,8003,001,11,2021_Nov_05_1033,task-switching-replication,2021.2.3,59.98435428533836,
1,37,experiment,11,sitting,noswitch,incongruant,dashed,triangle,blue,stimuli/dashed-rectangle.png,stimuli/blue-triangle.png,1,,,,,,,,,,,,,,,,,,,,,,,,,0,0,0,0,0,0,0,0,0,36,36,36,,,,,,,,,,,,,,,,,,,,,,,,,,,,,,,,,,,,,,,,,,,,,,,,,,,,,,,,,,,,,,,,,,,,,,,,,394.9102759361267,None,,,,,,,,,,,,,,,,,,,,,,,,,,,,,,,,,,,,,,,,,,,,,,,,,,,8003,001,11,2021_Nov_05_1033,task-switching-replication,2021.2.3,59.98435428533836,
1,38,experiment,11,sitting,noswitch,congruant,dashed,triangle,blue,stimuli/dashed-rectangle.png,stimuli/blue-triangle.png,1,,,,,,,,,,,,,,,,,,,,,,,,,0,0,0,0,0,0,0,0,0,37,37,37,,,,,0,0,0,0,,,,,,,,,,,,,,,,,,,,,,,,,,,,,,,,,,,,,,,,,,,,,,,,,,,,,,,1636126775.1459372,,,,,,,,,,,,,,,,397.58043947219846,398.6327769756317,397.61205196380615,None,,,,,,,,,,,,,,,,,,,,,,,,,,,,,,,,,,395.10732793807983,None,396.09782695770264,None,None,0,,396.09782695770264,None,8003,001,11,2021_Nov_05_1033,task-switching-replication,2021.2.3,59.98435428533836,
1,38,experiment,11,sitting,noswitch,congruant,dashed,triangle,blue,stimuli/dashed-rectangle.png,stimuli/blue-triangle.png,1,,,,,,,,,,,,,,,,,,,,,,,,,0,0,0,0,0,0,0,0,0,37,37,37,,,,,,,,,,,,,,,,,,,,,,,,,,,,,,,,,,,,,,,,,,,,,,,,,,,,,,,,,,,,,,,,,,,,,,,,,402.61026406288147,None,,,,,,,,,,,,,,,,,,,,,,,,,,,,,,,,,,,,,,,,,,,,,,,,,,,8003,001,11,2021_Nov_05_1033,task-switching-replication,2021.2.3,59.98435428533836,
1,39,experiment,11,sitting,noswitch,congruant,dashed,triangle,yellow,stimuli/dashed-rectangle.png,stimuli/yellow-triangle.png,1,,,,,,,,,,,,,,,,,,,,,,,,,0,0,0,0,0,0,0,0,0,38,38,38,,,,,,,,,,,,,,,,,,,,,,,,,,,,,,,,,,,,,,,,,,,,,,,,,,,,,,,,,,,,,,,1636126782.7013843,,,,,,,,,,405.15409994125366,None,,,,,,,,,,,,,,,,,,,,,,,,,,,,,,,,,,,,,,,,,,402.8399090766907,None,403.8298740386963,None,1,1,1.1607329845428467,403.8298740386963,None,8003,001,11,2021_Nov_05_1033,task-switching-replication,2021.2.3,59.98435428533836,
1,40,experiment,11,sitting,switch,congruant,solid,triangle,yellow,stimuli/solid-rectangle.png,stimuli/yellow-triangle.png,1,,,,,,,,,,,,,,,,,,,,,,,,,0,0,0,0,0,0,0,0,0,39,39,39,,,,,,,,,,,,,,,,,,,,,,,,,,,,,,,,,,,,,,,,,,,,,,,,,,,,,,,,,,,,,,,1636126784.4727402,,,,,,,,,,406.9261209964752,None,,,,,,,,,,,,,,,,,,,,,,,,,,,,,,,,,,,,,,,,,,405.38329696655273,None,406.3734829425812,None,1,1,0.419356107711792,406.3734829425812,None,8003,001,11,2021_Nov_05_1033,task-switching-replication,2021.2.3,59.98435428533836,
1,41,experiment,11,sitting,noswitch,incongruant,solid,square,blue,stimuli/solid-rectangle.png,stimuli/blue-square.png,2,,,,,,,,,,,,,,,,,,,,,,,,,0,0,0,0,0,0,0,0,0,40,40,40,,,,,,,,,,,,,,,,,,,,,,,,,,,,,,,,,,,,,,,,,,,,,,,,,,,,,,,,,,,,,,,1636126786.3058426,,,,,,,,,,408.75870299339294,None,,,,,,,,,,,,,,,,,,,,,,,,,,,,,,,,,,,,,,,,,,407.1555850505829,None,408.14551305770874,None,2,1,0.4743518829345703,408.14551305770874,None,8003,001,11,2021_Nov_05_1033,task-switching-replication,2021.2.3,59.98435428533836,
1,42,experiment,11,sitting,switch,congruant,dashed,square,yellow,stimuli/dashed-rectangle.png,stimuli/yellow-square.png,2,,,,,,,,,,,,,,,,,,,,,,,,,0,0,0,0,0,0,0,0,0,41,41,41,,,,,,,,,,,,,,,,,,,,,,,,,,,,,,,,,,,,,,,,,,,,,,,,,,,,,,,,,,,,,,,1636126788.4318233,,,,,,,,,,410.885302066803,None,,,,,,,,,,,,,,,,,,,,,,,,,,,,,,,,,,,,,,,,,,408.98823499679565,None,409.9773979187012,None,2,1,0.7964000701904297,409.9773979187012,None,8003,001,11,2021_Nov_05_1033,task-switching-replication,2021.2.3,59.98435428533836,
1,43,experiment,11,sitting,switch,incongruant,solid,triangle,yellow,stimuli/solid-rectangle.png,stimuli/yellow-triangle.png,1,,,,,,,,,,,,,,,,,,,,,,,,,0,0,0,0,0,0,0,0,0,42,42,42,,,,,,,,,,,,,,,,,,,,,,,,,,,,,,,,,,,,,,,,,,,,,,,,,,,,,,,,,,,,,,,1636126790.502041,,,,,,,,,,412.95466899871826,None,,,,,,,,,,,,,,,,,,,,,,,,,,,,,,,,,,,,,,,,,,411.1142809391022,None,412.1033339500427,None,1,1,0.7222719192504883,412.1033339500427,None,8003,001,11,2021_Nov_05_1033,task-switching-replication,2021.2.3,59.98435428533836,
1,44,experiment,11,sitting,switch,incongruant,dashed,square,blue,stimuli/dashed-rectangle.png,stimuli/blue-square.png,2,,,,,,,,,,,,,,,,,,,,,,,,,0,0,0,0,0,0,0,0,0,43,43,43,,,,,,,,,,,,,,,,,,,,,,,,,,,,,,,,,,,,,,,,,,,,,,,,,,,,,,,,,,,,,,,1636126792.3905888,,,,,,,,,,414.8434159755707,None,,,,,,,,,,,,,,,,,,,,,,,,,,,,,,,,,,,,,,,,,,413.18399000167847,None,414.1733000278473,None,2,1,0.5548708438873291,414.1733000278473,None,8003,001,11,2021_Nov_05_1033,task-switching-replication,2021.2.3,59.98435428533836,
1,45,experiment,11,sitting,switch,incongruant,solid,triangle,yellow,stimuli/solid-rectangle.png,stimuli/yellow-triangle.png,1,,,,,,,,,,,,,,,,,,,,,,,,,0,0,0,0,0,0,0,0,0,44,44,44,,,,,,,,,,,,,,,,,,,,,,,,,,,,,,,,,,,,,,,,,,,,,,,,,,,,,,,,,,,,,,,1636126794.3988354,,,,,,,,,,416.85151505470276,None,,,,,,,,,,,,,,,,,,,,,,,,,,,,,,,,,,,,,,,,,,415.07241797447205,None,416.06230902671814,None,1,1,0.6655378341674805,416.06230902671814,None,8003,001,11,2021_Nov_05_1033,task-switching-replication,2021.2.3,59.98435428533836,
1,46,experiment,11,sitting,noswitch,incongruant,solid,triangle,blue,stimuli/solid-rectangle.png,stimuli/blue-triangle.png,2,,,,,,,,,,,,,,,,,,,,,,,,,0,0,0,0,0,0,0,0,0,45,45,45,,,,,,,,,,,,,,,,,,,,,,,,,,,,,,,,,,,,,,,,,,,,,,,,,,,,,,,,,,,,,,,1636126796.82443,,,,,,,,,,419.2770709991455,None,,,,,,,,,,,,,,,,,,,,,,,,,,,,,,,,,,,,,,,,,,417.08088207244873,None,418.07122898101807,None,2,1,1.0625810623168945,418.07122898101807,None,8003,001,11,2021_Nov_05_1033,task-switching-replication,2021.2.3,59.98435428533836,
1,47,experiment,11,sitting,switch,congruant,dashed,square,blue,stimuli/dashed-rectangle.png,stimuli/blue-square.png,2,,,,,,,,,,,,,,,,,,,,,,,,,0,0,0,0,0,0,0,0,0,46,46,46,,,,,,,,,,,,,,,,,,,,,,,,,,,,,,,,,,,,,,,,,,,,,,,,,,,,,,,,,,,,,,,1636126799.3072386,,,,,,,,,,421.7605929374695,None,,,,,,,,,,,,,,,,,,,,,,,,,,,,,,,,,,,,,,,,,,419.50691294670105,None,420.4968888759613,None,2,1,1.1229119300842285,420.4968888759613,None,8003,001,11,2021_Nov_05_1033,task-switching-replication,2021.2.3,59.98435428533836,
1,48,experiment,11,sitting,noswitch,incongruant,dashed,triangle,blue,stimuli/dashed-rectangle.png,stimuli/blue-triangle.png,1,,,,,,,,,,,,,,,,,,,,,,,,,0,0,0,0,0,0,0,0,0,47,47,47,,,,,,,,,,,,,,,,,,,,,,,,,,,,,,,,,,,,,,,,,,,,,,,,,,,,,,,,,,,,,,,1636126801.435568,,,,,,,,,,423.8883578777313,None,,,,,,,,,,,,,,,,,,,,,,,,,,,,,,,,,,,,,,,,,,421.9899959564209,None,422.97969102859497,None,1,1,0.7651078701019287,422.97969102859497,None,8003,001,11,2021_Nov_05_1033,task-switching-replication,2021.2.3,59.98435428533836,
1,49,experiment,11,sitting,switch,incongruant,solid,square,blue,stimuli/solid-rectangle.png,stimuli/blue-square.png,2,,,,,,,,,,,,,,,,,,,,,,,,,0,0,0,0,0,0,0,0,0,48,48,48,,,,,,,,,,,,,,,,,,,,,,,,,,,,,,,,,,,,,,,,,,,,,,,,,,,,,,,,,,,,,,,1636126803.5669186,,,,,,,,,,426.0195209980011,None,,,,,,,,,,,,,,,,,,,,,,,,,,,,,,,,,,,,,,,,,,424.11809492111206,None,425.1081600189209,None,2,1,0.7577390670776367,425.1081600189209,None,8003,001,11,2021_Nov_05_1033,task-switching-replication,2021.2.3,59.98435428533836,
,,,11,,,,,,,,,,,,,,,,,,,,,,,,,,,,,,,,,,0,0,0,0,0,0,0,0,,,,,,,,,,,,,,,,,,,,,,,,,,,,,,,,,,,,,,,,,,,,,,,,,,,,,,,,,,,,,,,,,,,,,,,,,,,,,,,,,,,,,,,,,,,,,,,,,,,,,,,,,,,,,,,,,,,,,,,,,,,,,,,,,8003,001,11,2021_Nov_05_1033,task-switching-replication,2021.2.3,59.98435428533836,
2,1,experiment,11,sitting,buffer,buffer,solid,triangle,blue,stimuli/solid-rectangle.png,stimuli/blue-triangle.png,2,,,,,,,,,,,,,,,,,,,,,,,,,0,0,0,0,1,0,1,0,0,0,0,0,,,,,,,,,,,,,,,,,,,,,,,,,,,,,,,,,,,,,,,,,,,,,,,,,,,,,,,,,,,,,,,1636126824.7315316,,,,,,,,,,447.1855220794678,None,,,,,,,,,,,,,,,,,,,,,,,,,,,,,,426.24983286857605,None,2,17.833963871002197,426.24983286857605,None,444.1907708644867,None,2,0.9137749671936035,444.1907708644867,None,445.2238528728485,None,446.2167890071869,None,2,1,0.8149569034576416,446.2167890071869,None,8003,001,11,2021_Nov_05_1033,task-switching-replication,2021.2.3,59.98435428533836,
2,2,experiment,11,sitting,switch,incongruant,dashed,triangle,yellow,stimuli/dashed-rectangle.png,stimuli/yellow-triangle.png,1,,,,,,,,,,,,,,,,,,,,,,,,,0,0,0,0,1,0,1,0,0,1,1,1,,,,,,,,,,,,,,,,,,,,,,,,,,,,,,,,,,,,,,,,,,,,,,,,,,,,,,,,,,,,,,,1636126826.9225187,,,,,,,,,,449.3750059604645,None,,,,,,,,,,,,,,,,,,,,,,,,,,,,,,,,,,,,,,,,,,447.4146749973297,None,448.40547800064087,None,1,1,0.8161599636077881,448.40547800064087,None,8003,001,11,2021_Nov_05_1033,task-switching-replication,2021.2.3,59.98435428533836,
2,3,experiment,11,sitting,noswitch,congruant,dashed,triangle,yellow,stimuli/dashed-rectangle.png,stimuli/yellow-triangle.png,1,,,,,,,,,,,,,,,,,,,,,,,,,0,0,0,0,1,0,1,0,0,2,2,2,,,,,,,,,,,,,,,,,,,,,,,,,,,,,,,,,,,,,,,,,,,,,,,,,,,,,,,,,,,,,,,1636126828.634846,,,,,,,,,,451.0882649421692,None,,,,,,,,,,,,,,,,,,,,,,,,,,,,,,,,,,,,,,,,,,449.60483288764954,None,450.5951008796692,None,1,1,0.3672449588775635,450.5951008796692,None,8003,001,11,2021_Nov_05_1033,task-switching-replication,2021.2.3,59.98435428533836,
2,4,experiment,11,sitting,noswitch,incongruant,dashed,square,yellow,stimuli/dashed-rectangle.png,stimuli/yellow-square.png,2,,,,,,,,,,,,,,,,,,,,,,,,,0,0,0,0,1,0,1,0,0,3,3,3,,,,,,,,,,,,,,,,,,,,,,,,,,,,,,,,,,,,,,,,,,,,,,,,,,,,,,,,,,,,,,,1636126830.2896116,,,,,,,,,,452.7432780265808,None,,,,,,,,,,,,,,,,,,,,,,,,,,,,,,,,,,,,,,,,,,451.31808495521545,None,452.30921506881714,None,2,1,0.32456398010253906,452.30921506881714,None,8003,001,11,2021_Nov_05_1033,task-switching-replication,2021.2.3,59.98435428533836,
2,5,experiment,11,sitting,switch,incongruant,solid,square,yellow,stimuli/solid-rectangle.png,stimuli/yellow-square.png,1,,,,,,,,,,,,,,,,,,,,,,,,,0,0,0,0,1,0,1,0,0,4,4,4,0,0,0,0,,,,,,,,,,,,,,,,,,,,,,,,,,,,,,,,,,,,,,,,,,,,,,,,,,,,,,,,,,,1636126832.2397587,,,,,,,,,,,,454.66492795944214,455.6829888820648,454.6979429721832,None,,,,,,,,,,,,,,,,,,,,,,,,,,,,,,,,,,,,,,452.9725818634033,None,453.96285796165466,None,2,0,0.6157140731811523,453.96285796165466,None,8003,001,11,2021_Nov_05_1033,task-switching-replication,2021.2.3,59.98435428533836,
2,5,experiment,11,sitting,switch,incongruant,solid,square,yellow,stimuli/solid-rectangle.png,stimuli/yellow-square.png,1,,,,,,,,,,,,,,,,,,,,,,,,,0,0,0,0,1,0,1,0,0,4,4,4,,,,,,,,,,,,,,,,,,,,,,,,,,,,,,,,,,,,,,,,,,,,,,,,,,,,,,,,,,,,,,,,,,,,,,,,,459.69402289390564,None,,,,,,,,,,,,,,,,,,,,,,,,,,,,,,,,,,,,,,,,,,,,,,,,,,,8003,001,11,2021_Nov_05_1033,task-switching-replication,2021.2.3,59.98435428533836,
2,6,experiment,11,sitting,switch,incongruant,dashed,square,blue,stimuli/dashed-rectangle.png,stimuli/blue-square.png,2,,,,,,,,,,,,,,,,,,,,,,,,,0,0,0,0,1,0,1,0,0,5,5,5,,,,,,,,,,,,,,,,,,,,,,,,,,,,,,,,,,,,,,,,,,,,,,,,,,,,,,,,,,,,,,,1636126839.4266293,,,,,,,,,,461.8800928592682,None,,,,,,,,,,,,,,,,,,,,,,,,,,,,,,,,,,,,,,,,,,459.9230649471283,None,460.9121370315552,None,2,1,0.8235049247741699,460.9121370315552,None,8003,001,11,2021_Nov_05_1033,task-switching-replication,2021.2.3,59.98435428533836,
2,7,experiment,11,sitting,noswitch,congruant,dashed,square,yellow,stimuli/dashed-rectangle.png,stimuli/yellow-square.png,2,,,,,,,,,,,,,,,,,,,,,,,,,0,0,0,0,1,0,1,0,0,6,6,6,,,,,,,,,,,,,,,,,,,,,,,,,,,,,,,,,,,,,,,,,,,,,,,,,,,,,,,,,,,,,,,1636126841.1986575,,,,,,,,,,463.65210604667664,None,,,,,,,,,,,,,,,,,,,,,,,,,,,,,,,,,,,,,,,,,,462.1094250679016,None,463.0995240211487,None,2,1,0.42704010009765625,463.0995240211487,None,8003,001,11,2021_Nov_05_1033,task-switching-replication,2021.2.3,59.98435428533836,
2,8,experiment,11,sitting,switch,congruant,solid,triangle,blue,stimuli/solid-rectangle.png,stimuli/blue-triangle.png,2,,,,,,,,,,,,,,,,,,,,,,,,,0,0,0,0,1,0,1,0,0,7,7,7,,,,,,,,,,,,,,,,,,,,,,,,,,,,,,,,,,,,,,,,,,,,,,,,,,,,,,,,,,,,,,,1636126843.0301995,,,,,,,,,,465.4836149215698,None,,,,,,,,,,,,,,,,,,,,,,,,,,,,,,,,,,,,,,,,,,463.88160586357117,None,464.8718490600586,None,2,1,0.47659897804260254,464.8718490600586,None,8003,001,11,2021_Nov_05_1033,task-switching-replication,2021.2.3,59.98435428533836,
2,9,experiment,11,sitting,noswitch,congruant,solid,triangle,blue,stimuli/solid-rectangle.png,stimuli/blue-triangle.png,2,,,,,,,,,,,,,,,,,,,,,,,,,0,0,0,0,1,0,1,0,0,8,8,8,,,,,,,,,,,,,,,,,,,,,,,,,,,,,,,,,,,,,,,,,,,,,,,,,,,,,,,,,,,,,,,1636126844.741445,,,,,,,,,,467.19496607780457,None,,,,,,,,,,,,,,,,,,,,,,,,,,,,,,,,,,,,,,,,,,465.71272897720337,None,466.70174288749695,None,2,1,0.36182212829589844,466.70174288749695,None,8003,001,11,2021_Nov_05_1033,task-switching-replication,2021.2.3,59.98435428533836,
2,10,experiment,11,sitting,switch,congruant,dashed,square,yellow,stimuli/dashed-rectangle.png,stimuli/yellow-square.png,2,,,,,,,,,,,,,,,,,,,,,,,,,0,0,0,0,1,0,1,0,0,9,9,9,,,,,,,,,,,,,,,,,,,,,,,,,,,,,,,,,,,,,,,,,,,,,,,,,,,,,,,,,,,,,,,1636126846.6894937,,,,,,,,,,469.1429319381714,None,,,,,,,,,,,,,,,,,,,,,,,,,,,,,,,,,,,,,,,,,,467.4243369102478,None,468.41339898109436,None,2,1,0.6320719718933105,468.41339898109436,None,8003,001,11,2021_Nov_05_1033,task-switching-replication,2021.2.3,59.98435428533836,
2,11,experiment,11,sitting,noswitch,incongruant,dashed,triangle,blue,stimuli/dashed-rectangle.png,stimuli/blue-triangle.png,1,,,,,,,,,,,,,,,,,,,,,,,,,0,0,0,0,1,0,1,0,0,10,10,10,,,,,,,,,,,,,,,,,,,,,,,,,,,,,,,,,,,,,,,,,,,,,,,,,,,,,,,,,,,,,,,1636126848.8191543,,,,,,,,,,471.2720890045166,None,,,,,,,,,,,,,,,,,,,,,,,,,,,,,,,,,,,,,,,,,,469.37224888801575,None,470.36154890060425,None,1,1,0.7469141483306885,470.36154890060425,None,8003,001,11,2021_Nov_05_1033,task-switching-replication,2021.2.3,59.98435428533836,
2,12,experiment,11,sitting,noswitch,congruant,dashed,triangle,blue,stimuli/dashed-rectangle.png,stimuli/blue-triangle.png,1,,,,,,,,,,,,,,,,,,,,,,,,,0,0,0,0,1,0,1,0,0,11,11,11,,,,,,,,,,,,,,,,,,,,,,,,,,,,,,,,,,,,,,,,,,,,,,,,,,,,,,,,,,,,,,,1636126850.5302513,,,,,,,,,,472.98370695114136,None,,,,,,,,,,,,,,,,,,,,,,,,,,,,,,,,,,,,,,,,,,471.5013129711151,None,472.4907660484314,None,1,1,0.3864719867706299,472.4907660484314,None,8003,001,11,2021_Nov_05_1033,task-switching-replication,2021.2.3,59.98435428533836,
2,13,experiment,11,sitting,noswitch,incongruant,dashed,square,blue,stimuli/dashed-rectangle.png,stimuli/blue-square.png,2,,,,,,,,,,,,,,,,,,,,,,,,,0,0,0,0,1,0,1,0,0,12,12,12,,,,,,,,,,,,,,,,,,,,,,,,,,,,,,,,,,,,,,,,,,,,,,,,,,,,,,,,,,,,,,,1636126852.3012207,,,,,,,,,,474.75429797172546,None,,,,,,,,,,,,,,,,,,,,,,,,,,,,,,,,,,,,,,,,,,473.2130239009857,None,474.2024600505829,None,2,1,0.44721293449401855,474.2024600505829,None,8003,001,11,2021_Nov_05_1033,task-switching-replication,2021.2.3,59.98435428533836,
2,14,experiment,11,sitting,noswitch,congruant,dashed,square,yellow,stimuli/dashed-rectangle.png,stimuli/yellow-square.png,2,,,,,,,,,,,,,,,,,,,,,,,,,0,0,0,0,1,0,1,0,0,13,13,13,,,,,,,,,,,,,,,,,,,,,,,,,,,,,,,,,,,,,,,,,,,,,,,,,,,,,,,,,,,,,,,1636126854.2496753,,,,,,,,,,476.7031600475311,None,,,,,,,,,,,,,,,,,,,,,,,,,,,,,,,,,,,,,,,,,,474.9836440086365,None,475.9731819629669,None,2,1,0.6178460121154785,475.9731819629669,None,8003,001,11,2021_Nov_05_1033,task-switching-replication,2021.2.3,59.98435428533836,
2,15,experiment,11,sitting,noswitch,incongruant,dashed,triangle,blue,stimuli/dashed-rectangle.png,stimuli/blue-triangle.png,1,,,,,,,,,,,,,,,,,,,,,,,,,0,0,0,0,1,0,1,0,0,14,14,14,,,,,,,,,,,,,,,,,,,,,,,,,,,,,,,,,,,,,,,,,,,,,,,,,,,,,,,,,,,,,,,1636126855.9050353,,,,,,,,,,478.35780596733093,None,,,,,,,,,,,,,,,,,,,,,,,,,,,,,,,,,,,,,,,,,,476.93225598335266,None,477.92124795913696,None,1,1,0.2979090213775635,477.92124795913696,None,8003,001,11,2021_Nov_05_1033,task-switching-replication,2021.2.3,59.98435428533836,
2,16,experiment,11,sitting,noswitch,incongruant,dashed,square,yellow,stimuli/dashed-rectangle.png,stimuli/yellow-square.png,2,,,,,,,,,,,,,,,,,,,,,,,,,0,0,0,0,1,0,1,0,0,15,15,15,,,,,,,,,,,,,,,,,,,,,,,,,,,,,,,,,,,,,,,,,,,,,,,,,,,,,,,,,,,,,,,1636126857.7365108,,,,,,,,,,480.18928503990173,None,,,,,,,,,,,,,,,,,,,,,,,,,,,,,,,,,,,,,,,,,,478.5873200893402,None,479.57694697380066,None,2,1,0.4734470844268799,479.57694697380066,None,8003,001,11,2021_Nov_05_1033,task-switching-replication,2021.2.3,59.98435428533836,
2,17,experiment,11,sitting,switch,incongruant,solid,square,yellow,stimuli/solid-rectangle.png,stimuli/yellow-square.png,1,,,,,,,,,,,,,,,,,,,,,,,,,0,0,0,0,1,0,1,0,0,16,16,16,0,0,0,0,,,,,,,,,,,,,,,,,,,,,,,,,,,,,,,,,,,,,,,,,,,,,,,,,,,,,,,,,,,1636126859.9815388,,,,,,,,,,,,482.40679597854614,483.4248380661011,482.43960404396057,None,,,,,,,,,,,,,,,,,,,,,,,,,,,,,,,,,,,,,,480.41873002052307,None,481.40821504592896,None,2,0,0.8850889205932617,481.40821504592896,None,8003,001,11,2021_Nov_05_1033,task-switching-replication,2021.2.3,59.98435428533836,
2,17,experiment,11,sitting,switch,incongruant,solid,square,yellow,stimuli/solid-rectangle.png,stimuli/yellow-square.png,1,,,,,,,,,,,,,,,,,,,,,,,,,0,0,0,0,1,0,1,0,0,16,16,16,,,,,,,,,,,,,,,,,,,,,,,,,,,,,,,,,,,,,,,,,,,,,,,,,,,,,,,,,,,,,,,,,,,,,,,,,487.46994495391846,None,,,,,,,,,,,,,,,,,,,,,,,,,,,,,,,,,,,,,,,,,,,,,,,,,,,8003,001,11,2021_Nov_05_1033,task-switching-replication,2021.2.3,59.98435428533836,
2,18,experiment,11,sitting,switch,congruant,dashed,triangle,blue,stimuli/dashed-rectangle.png,stimuli/blue-triangle.png,1,,,,,,,,,,,,,,,,,,,,,,,,,0,0,0,0,1,0,1,0,0,17,17,17,,,,,,,,,,,,,,,,,,,,,,,,,,,,,,,,,,,,,,,,,,,,,,,,,,,,,,,,,,,,,,,1636126866.9350257,,,,,,,,,,489.3878290653229,None,,,,,,,,,,,,,,,,,,,,,,,,,,,,,,,,,,,,,,,,,,487.66698694229126,None,488.65712308883667,None,1,1,0.5671961307525635,488.65712308883667,None,8003,001,11,2021_Nov_05_1033,task-switching-replication,2021.2.3,59.98435428533836,
2,19,experiment,11,sitting,switch,congruant,solid,triangle,yellow,stimuli/solid-rectangle.png,stimuli/yellow-triangle.png,1,,,,,,,,,,,,,,,,,,,,,,,,,0,0,0,0,1,0,1,0,0,18,18,18,,,,,,,,,,,,,,,,,,,,,,,,,,,,,,,,,,,,,,,,,,,,,,,,,,,,,,,,,,,,,,,1636126869.1218503,,,,,,,,,,491.575336933136,None,,,,,,,,,,,,,,,,,,,,,,,,,,,,,,,,,,,,,,,,,,489.61719703674316,None,490.6073970794678,None,1,1,0.8553271293640137,490.6073970794678,None,8003,001,11,2021_Nov_05_1033,task-switching-replication,2021.2.3,59.98435428533836,
2,20,experiment,11,sitting,noswitch,congruant,solid,triangle,yellow,stimuli/solid-rectangle.png,stimuli/yellow-triangle.png,1,,,,,,,,,,,,,,,,,,,,,,,,,0,0,0,0,1,0,1,0,0,19,19,19,,,,,,,,,,,,,,,,,,,,,,,,,,,,,,,,,,,,,,,,,,,,,,,,,,,,,,,,,,,,,,,1636126870.775608,,,,,,,,,,493.22912192344666,None,,,,,,,,,,,,,,,,,,,,,,,,,,,,,,,,,,,,,,,,,,491.8043370246887,None,492.795049905777,None,1,1,0.2852060794830322,492.795049905777,None,8003,001,11,2021_Nov_05_1033,task-switching-replication,2021.2.3,59.98435428533836,
2,21,experiment,11,sitting,noswitch,congruant,solid,triangle,yellow,stimuli/solid-rectangle.png,stimuli/yellow-triangle.png,1,,,,,,,,,,,,,,,,,,,,,,,,,0,0,0,0,1,0,1,0,0,20,20,20,,,,,,,,,,,,,,,,,,,,,,,,,,,,,,,,,,,,,,,,,,,,,,,,,,,,,,,,,,,,,,,1636126872.4875672,,,,,,,,,,494.940810918808,None,,,,,,,,,,,,,,,,,,,,,,,,,,,,,,,,,,,,,,,,,,493.4582929611206,None,494.4480080604553,None,1,1,0.3681778907775879,494.4480080604553,None,8003,001,11,2021_Nov_05_1033,task-switching-replication,2021.2.3,59.98435428533836,
2,22,experiment,11,sitting,switch,incongruant,dashed,square,blue,stimuli/dashed-rectangle.png,stimuli/blue-square.png,2,,,,,,,,,,,,,,,,,,,,,,,,,0,0,0,0,1,0,1,0,0,21,21,21,,,,,,,,,,,,,,,,,,,,,,,,,,,,,,,,,,,,,,,,,,,,,,,,,,,,,,,,,,,,,,,1636126874.8542178,,,,,,,,,,497.3071360588074,None,,,,,,,,,,,,,,,,,,,,,,,,,,,,,,,,,,,,,,,,,,495.1702330112457,None,496.1596739292145,None,2,1,0.9937670230865479,496.1596739292145,None,8003,001,11,2021_Nov_05_1033,task-switching-replication,2021.2.3,59.98435428533836,
2,23,experiment,11,sitting,switch,congruant,solid,triangle,blue,stimuli/solid-rectangle.png,stimuli/blue-triangle.png,2,,,,,,,,,,,,,,,,,,,,,,,,,0,0,0,0,1,0,1,0,0,22,22,22,,,,,,,,,,,,,,,,,,,,,,,,,,,,,,,,,,,,,,,,,,,,,,,,,,,,,,,,,,,,,,,1636126877.2770753,,,,,,,,,,499.7304549217224,None,,,,,,,,,,,,,,,,,,,,,,,,,,,,,,,,,,,,,,,,,,497.53730487823486,None,498.526328086853,None,2,1,1.0699138641357422,498.526328086853,None,8003,001,11,2021_Nov_05_1033,task-switching-replication,2021.2.3,59.98435428533836,
2,24,experiment,11,sitting,noswitch,congruant,solid,triangle,blue,stimuli/solid-rectangle.png,stimuli/blue-triangle.png,2,,,,,,,,,,,,,,,,,,,,,,,,,0,0,0,0,1,0,1,0,0,23,23,23,,,,,,,,,,,,,,,,,,,,,,,,,,,,,,,,,,,,,,,,,,,,,,,,,,,,,,,,,,,,,,,1636126879.1658084,,,,,,,,,,501.6192948818207,None,,,,,,,,,,,,,,,,,,,,,,,,,,,,,,,,,,,,,,,,,,499.9593770503998,None,500.94852089881897,None,2,1,0.5656931400299072,500.94852089881897,None,8003,001,11,2021_Nov_05_1033,task-switching-replication,2021.2.3,59.98435428533836,
2,25,experiment,11,sitting,noswitch,congruant,solid,square,blue,stimuli/solid-rectangle.png,stimuli/blue-square.png,2,,,,,,,,,,,,,,,,,,,,,,,,,0,0,0,0,1,0,1,0,0,24,24,24,,,,,,,,,,,,,,,,,,,,,,,,,,,,,,,,,,,,,,,,,,,,,,,,,,,,,,,,,,,,,,,1636126881.233815,,,,,,,,,,503.6871979236603,None,,,,,,,,,,,,,,,,,,,,,,,,,,,,,,,,,,,,,,,,,,501.8484380245209,None,502.8383650779724,None,2,1,0.7038938999176025,502.8383650779724,None,8003,001,11,2021_Nov_05_1033,task-switching-replication,2021.2.3,59.98435428533836,
2,26,experiment,11,sitting,noswitch,congruant,solid,square,blue,stimuli/solid-rectangle.png,stimuli/blue-square.png,2,,,,,,,,,,,,,,,,,,,,,,,,,0,0,0,0,1,0,1,0,0,25,25,25,,,,,,,,,,,,,,,,,,,,,,,,,,,,,,,,,,,,,,,,,,,,,,,,,,,,,,,,,,,,,,,1636126883.005357,,,,,,,,,,505.4586589336395,None,,,,,,,,,,,,,,,,,,,,,,,,,,,,,,,,,,,,,,,,,,503.916375875473,None,504.9063699245453,None,2,1,0.4327831268310547,504.9063699245453,None,8003,001,11,2021_Nov_05_1033,task-switching-replication,2021.2.3,59.98435428533836,
2,27,experiment,11,sitting,switch,incongruant,dashed,triangle,yellow,stimuli/dashed-rectangle.png,stimuli/yellow-triangle.png,1,,,,,,,,,,,,,,,,,,,,,,,,,0,0,0,0,1,0,1,0,0,26,26,26,,,,,,,,,,,,,,,,,,,,,,,,,,,,,,,,,,,,,,,,,,,,,,,,,,,,,,,,,,,,,,,1636126885.0747004,,,,,,,,,,507.52719497680664,None,,,,,,,,,,,,,,,,,,,,,,,,,,,,,,,,,,,,,,,,,,505.68782591819763,None,506.67737889289856,None,1,1,0.7165741920471191,506.67737889289856,None,8003,001,11,2021_Nov_05_1033,task-switching-replication,2021.2.3,59.98435428533836,
2,28,experiment,11,sitting,noswitch,incongruant,dashed,square,blue,stimuli/dashed-rectangle.png,stimuli/blue-square.png,2,,,,,,,,,,,,,,,,,,,,,,,,,0,0,0,0,1,0,1,0,0,27,27,27,,,,,,,,,,,,,,,,,,,,,,,,,,,,,,,,,,,,,,,,,,,,,,,,,,,,,,,,,,,,,,,1636126887.082034,,,,,,,,,,509.53469800949097,None,,,,,,,,,,,,,,,,,,,,,,,,,,,,,,,,,,,,,,,,,,507.756600856781,None,508.74580693244934,None,2,1,0.6402029991149902,508.74580693244934,None,8003,001,11,2021_Nov_05_1033,task-switching-replication,2021.2.3,59.98435428533836,
2,29,experiment,11,sitting,switch,incongruant,solid,square,yellow,stimuli/solid-rectangle.png,stimuli/yellow-square.png,1,,,,,,,,,,,,,,,,,,,,,,,,,0,0,0,0,1,0,1,0,0,28,28,28,,,,,,,,,,,,,,,,,,,,,,,,,,,,,,,,,,,,,,,,,,,,,,,,,,,,,,,,,,,,,,,1636126889.0925908,,,,,,,,,,511.545471906662,None,,,,,,,,,,,,,,,,,,,,,,,,,,,,,,,,,,,,,,,,,,509.7641339302063,None,510.7551100254059,None,1,1,0.6510570049285889,510.7551100254059,None,8003,001,11,2021_Nov_05_1033,task-switching-replication,2021.2.3,59.98435428533836,
2,30,experiment,11,sitting,switch,congruant,dashed,triangle,yellow,stimuli/dashed-rectangle.png,stimuli/yellow-triangle.png,1,,,,,,,,,,,,,,,,,,,,,,,,,0,0,0,0,1,0,1,0,0,29,29,29,,,,,,,,,,,,,,,,,,,,,,,,,,,,,,,,,,,,,,,,,,,,,,,,,,,,,,,,,,,,,,,1636126891.21901,,,,,,,,,,513.6724359989166,None,,,,,,,,,,,,,,,,,,,,,,,,,,,,,,,,,,,,,,,,,,511.77452993392944,None,512.7643730640411,None,1,1,0.7556049823760986,512.7643730640411,None,8003,001,11,2021_Nov_05_1033,task-switching-replication,2021.2.3,59.98435428533836,
2,31,experiment,11,sitting,switch,congruant,solid,triangle,yellow,stimuli/solid-rectangle.png,stimuli/yellow-triangle.png,1,,,,,,,,,,,,,,,,,,,,,,,,,0,0,0,0,1,0,1,0,0,30,30,30,,,,,,,,,,,,,,,,,,,,,,,,,,,,,,,,,,,,,,,,,,,,,,,,,,,,,,,,,,,,,,,1636126892.9903631,,,,,,,,,,515.4436659812927,None,,,,,,,,,,,,,,,,,,,,,,,,,,,,,,,,,,,,,,,,,,513.9015839099884,None,514.891359090805,None,1,1,0.42273712158203125,514.891359090805,None,8003,001,11,2021_Nov_05_1033,task-switching-replication,2021.2.3,59.98435428533836,
2,32,experiment,11,sitting,noswitch,incongruant,solid,triangle,blue,stimuli/solid-rectangle.png,stimuli/blue-triangle.png,2,,,,,,,,,,,,,,,,,,,,,,,,,0,0,0,0,1,0,1,0,0,31,31,31,,,,,,,,,,,,,,,,,,,,,,,,,,,,,,,,,,,,,,,,,,,,,,,,,,,,,,,,,,,,,,,1636126894.9432666,,,,,,,,,,517.3958549499512,None,,,,,,,,,,,,,,,,,,,,,,,,,,,,,,,,,,,,,,,,,,515.6731669902802,None,516.6639709472656,None,2,1,0.6031150817871094,516.6639709472656,None,8003,001,11,2021_Nov_05_1033,task-switching-replication,2021.2.3,59.98435428533836,
2,33,experiment,11,sitting,noswitch,congruant,solid,triangle,blue,stimuli/solid-rectangle.png,stimuli/blue-triangle.png,2,,,,,,,,,,,,,,,,,,,,,,,,,0,0,0,0,1,0,1,0,0,32,32,32,,,,,,,,,,,,,,,,,,,,,,,,,,,,,,,,,,,,,,,,,,,,,,,,,,,,,,,,,,,,,,,1636126896.8912013,,,,,,,,,,519.3446190357208,None,,,,,,,,,,,,,,,,,,,,,,,,,,,,,,,,,,,,,,,,,,517.6252419948578,None,518.614336013794,None,2,1,0.5748128890991211,518.614336013794,None,8003,001,11,2021_Nov_05_1033,task-switching-replication,2021.2.3,59.98435428533836,
2,34,experiment,11,sitting,switch,incongruant,dashed,triangle,blue,stimuli/dashed-rectangle.png,stimuli/blue-triangle.png,1,,,,,,,,,,,,,,,,,,,,,,,,,0,0,0,0,1,0,1,0,0,33,33,33,,,,,0,0,0,0,,,,,,,,,,,,,,,,,,,,,,,,,,,,,,,,,,,,,,,,,,,,,,,,,,,,,,,1636126899.2581804,,,,,,,,,,,,,,,,521.6833519935608,522.7016310691833,521.7164840698242,None,,,,,,,,,,,,,,,,,,,,,,,,,,,,,,,,,,519.5740258693695,None,520.5653259754181,None,2,0,0.9957389831542969,520.5653259754181,None,8003,001,11,2021_Nov_05_1033,task-switching-replication,2021.2.3,59.98435428533836,
2,34,experiment,11,sitting,switch,incongruant,dashed,triangle,blue,stimuli/dashed-rectangle.png,stimuli/blue-triangle.png,1,,,,,,,,,,,,,,,,,,,,,,,,,0,0,0,0,1,0,1,0,0,33,33,33,,,,,,,,,,,,,,,,,,,,,,,,,,,,,,,,,,,,,,,,,,,,,,,,,,,,,,,,,,,,,,,,,,,,,,,,,526.7128179073334,None,,,,,,,,,,,,,,,,,,,,,,,,,,,,,,,,,,,,,,,,,,,,,,,,,,,8003,001,11,2021_Nov_05_1033,task-switching-replication,2021.2.3,59.98435428533836,
2,35,experiment,11,sitting,switch,congruant,solid,triangle,yellow,stimuli/solid-rectangle.png,stimuli/yellow-triangle.png,1,,,,,,,,,,,,,,,,,,,,,,,,,0,0,0,0,1,0,1,0,0,34,34,34,,,,,,,,,,,,,,,,,,,,,,,,,,,,,,,,,,,,,,,,,,,,,,,,,,,,,,,,,,,,,,,1636126906.4446936,,,,,,,,,,528.8976309299469,None,,,,,,,,,,,,,,,,,,,,,,,,,,,,,,,,,,,,,,,,,,526.9419450759888,None,527.9311740398407,None,1,1,0.8510909080505371,527.9311740398407,None,8003,001,11,2021_Nov_05_1033,task-switching-replication,2021.2.3,59.98435428533836,
2,36,experiment,11,sitting,noswitch,congruant,solid,square,yellow,stimuli/solid-rectangle.png,stimuli/yellow-square.png,1,,,,,,,,,,,,,,,,,,,,,,,,,0,0,0,0,1,0,1,0,0,35,35,35,,,,,,,,,,,,,,,,,,,,,,,,,,,,,,,,,,,,,,,,,,,,,,,,,,,,,,,,,,,,,,,1636126908.5728364,,,,,,,,,,531.0261590480804,None,,,,,,,,,,,,,,,,,,,,,,,,,,,,,,,,,,,,,,,,,,529.1280829906464,None,530.1184260845184,None,1,1,0.7825009822845459,530.1184260845184,None,8003,001,11,2021_Nov_05_1033,task-switching-replication,2021.2.3,59.98435428533836,
2,37,experiment,11,sitting,switch,congruant,dashed,triangle,yellow,stimuli/dashed-rectangle.png,stimuli/yellow-triangle.png,1,,,,,,,,,,,,,,,,,,,,,,,,,0,0,0,0,1,0,1,0,0,36,36,36,,,,,,,,,,,,,,,,,,,,,,,,,,,,,,,,,,,,,,,,,,,,,,,,,,,,,,,,,,,,,,,1636126910.703193,,,,,,,,,,533.1568260192871,None,,,,,,,,,,,,,,,,,,,,,,,,,,,,,,,,,,,,,,,,,,531.2554829120636,None,532.2464399337769,None,1,1,0.7954361438751221,532.2464399337769,None,8003,001,11,2021_Nov_05_1033,task-switching-replication,2021.2.3,59.98435428533836,
2,38,experiment,11,sitting,switch,incongruant,solid,square,blue,stimuli/solid-rectangle.png,stimuli/blue-square.png,2,,,,,,,,,,,,,,,,,,,,,,,,,0,0,0,0,1,0,1,0,0,37,37,37,,,,,,,,,,,,,,,,,,,,,,,,,,,,,,,,,,,,,,,,,,,,,,,,,,,,,,,,,,,,,,,1636126912.8335872,,,,,,,,,,535.2862238883972,None,,,,,,,,,,,,,,,,,,,,,,,,,,,,,,,,,,,,,,,,,,533.3863470554352,None,534.3759610652924,None,2,1,0.7859759330749512,534.3759610652924,None,8003,001,11,2021_Nov_05_1033,task-switching-replication,2021.2.3,59.98435428533836,
2,39,experiment,11,sitting,switch,incongruant,dashed,triangle,yellow,stimuli/dashed-rectangle.png,stimuli/yellow-triangle.png,1,,,,,,,,,,,,,,,,,,,,,,,,,0,0,0,0,1,0,1,0,0,38,38,38,,,,,,,,,,,,,,,,,,,,,,,,,,,,,,,,,,,,,,,,,,,,,,,,,,,,,,,,,,,,,,,1636126914.9596608,,,,,,,,,,537.412672996521,None,,,,,,,,,,,,,,,,,,,,,,,,,,,,,,,,,,,,,,,,,,535.5155868530273,None,536.5055930614471,None,1,1,0.7969369888305664,536.5055930614471,None,8003,001,11,2021_Nov_05_1033,task-switching-replication,2021.2.3,59.98435428533836,
2,40,experiment,11,sitting,noswitch,incongruant,dashed,square,blue,stimuli/dashed-rectangle.png,stimuli/blue-square.png,2,,,,,,,,,,,,,,,,,,,,,,,,,0,0,0,0,1,0,1,0,0,39,39,39,,,,,,,,,,,,,,,,,,,,,,,,,,,,,,,,,,,,,,,,,,,,,,,,,,,,,,,,,,,,,,,1636126917.147686,,,,,,,,,,539.6004610061646,None,,,,,,,,,,,,,,,,,,,,,,,,,,,,,,,,,,,,,,,,,,537.6420409679413,None,538.6310520172119,None,2,1,0.8160550594329834,538.6310520172119,None,8003,001,11,2021_Nov_05_1033,task-switching-replication,2021.2.3,59.98435428533836,
2,41,experiment,11,sitting,switch,incongruant,solid,square,yellow,stimuli/solid-rectangle.png,stimuli/yellow-square.png,1,,,,,,,,,,,,,,,,,,,,,,,,,0,0,0,0,1,0,1,0,0,40,40,40,,,,,,,,,,,,,,,,,,,,,,,,,,,,,,,,,,,,,,,,,,,,,,,,,,,,,,,,,,,,,,,1636126919.3927622,,,,,,,,,,541.8456530570984,None,,,,,,,,,,,,,,,,,,,,,,,,,,,,,,,,,,,,,,,,,,539.8307020664215,None,540.8202478885651,None,1,1,0.9206511974334717,540.8202478885651,None,8003,001,11,2021_Nov_05_1033,task-switching-replication,2021.2.3,59.98435428533836,
2,42,experiment,11,sitting,switch,incongruant,dashed,square,yellow,stimuli/dashed-rectangle.png,stimuli/yellow-square.png,2,,,,,,,,,,,,,,,,,,,,,,,,,0,0,0,0,1,0,1,0,0,41,41,41,,,,,,,,,,,,,,,,,,,,,,,,,,,,,,,,,,,,,,,,,,,,,,,,,,,,,,,,,,,,,,,1636126921.0447774,,,,,,,,,,543.4976990222931,None,,,,,,,,,,,,,,,,,,,,,,,,,,,,,,,,,,,,,,,,,,542.0746450424194,None,543.0644578933716,None,2,1,0.3305480480194092,543.0644578933716,None,8003,001,11,2021_Nov_05_1033,task-switching-replication,2021.2.3,59.98435428533836,
2,43,experiment,11,sitting,noswitch,congruant,dashed,square,blue,stimuli/dashed-rectangle.png,stimuli/blue-square.png,2,,,,,,,,,,,,,,,,,,,,,,,,,0,0,0,0,1,0,1,0,0,42,42,42,,,,,,,,,,,,,,,,,,,,,,,,,,,,,,,,,,,,,,,,,,,,,,,,,,,,,,,,,,,,,,,1636126922.8163214,,,,,,,,,,545.2695610523224,None,,,,,,,,,,,,,,,,,,,,,,,,,,,,,,,,,,,,,,,,,,543.7273790836334,None,544.7172310352325,None,2,1,0.4267568588256836,544.7172310352325,None,8003,001,11,2021_Nov_05_1033,task-switching-replication,2021.2.3,59.98435428533836,
2,44,experiment,11,sitting,switch,incongruant,solid,triangle,yellow,stimuli/solid-rectangle.png,stimuli/yellow-triangle.png,1,,,,,,,,,,,,,,,,,,,,,,,,,0,0,0,0,1,0,1,0,0,43,43,43,,,,,,,,,,,,,,,,,,,,,,,,,,,,,,,,,,,,,,,,,,,,,,,,,,,,,,,,,,,,,,,1636126924.8853834,,,,,,,,,,547.3381018638611,None,,,,,,,,,,,,,,,,,,,,,,,,,,,,,,,,,,,,,,,,,,545.498456954956,None,546.4879629611969,None,1,1,0.6966979503631592,546.4879629611969,None,8003,001,11,2021_Nov_05_1033,task-switching-replication,2021.2.3,59.98435428533836,
2,45,experiment,11,sitting,noswitch,incongruant,solid,square,blue,stimuli/solid-rectangle.png,stimuli/blue-square.png,2,,,,,,,,,,,,,,,,,,,,,,,,,0,0,0,0,1,0,1,0,0,44,44,44,,,,,,,,,,,,,,,,,,,,,,,,,,,,,,,,,,,,,,,,,,,,,,,,,,,,,,,,,,,,,,,1636126927.1310833,,,,,,,,,,549.5837919712067,None,,,,,,,,,,,,,,,,,,,,,,,,,,,,,,,,,,,,,,,,,,547.5676999092102,None,548.5573060512543,None,2,1,0.8727259635925293,548.5573060512543,None,8003,001,11,2021_Nov_05_1033,task-switching-replication,2021.2.3,59.98435428533836,
2,46,experiment,11,sitting,noswitch,congruant,solid,square,blue,stimuli/solid-rectangle.png,stimuli/blue-square.png,2,,,,,,,,,,,,,,,,,,,,,,,,,0,0,0,0,1,0,1,0,0,45,45,45,,,,,,,,,,,,,,,,,,,,,,,,,,,,,,,,,,,,,,,,,,,,,,,,,,,,,,,,,,,,,,,1636126929.020816,,,,,,,,,,551.4741208553314,None,,,,,,,,,,,,,,,,,,,,,,,,,,,,,,,,,,,,,,,,,,549.8133609294891,None,550.8033759593964,None,2,1,0.5334551334381104,550.8033759593964,None,8003,001,11,2021_Nov_05_1033,task-switching-replication,2021.2.3,59.98435428533836,
2,47,experiment,11,sitting,switch,incongruant,dashed,triangle,blue,stimuli/dashed-rectangle.png,stimuli/blue-triangle.png,1,,,,,,,,,,,,,,,,,,,,,,,,,0,0,0,0,1,0,1,0,0,46,46,46,,,,,,,,,,,,,,,,,,,,,,,,,,,,,,,,,,,,,,,,,,,,,,,,,,,,,,,,,,,,,,,1636126931.1466324,,,,,,,,,,553.6000690460205,None,,,,,,,,,,,,,,,,,,,,,,,,,,,,,,,,,,,,,,,,,,551.7033588886261,None,552.6923389434814,None,1,1,0.7942280769348145,552.6923389434814,None,8003,001,11,2021_Nov_05_1033,task-switching-replication,2021.2.3,59.98435428533836,
2,48,experiment,11,sitting,switch,congruant,solid,square,yellow,stimuli/solid-rectangle.png,stimuli/yellow-square.png,1,,,,,,,,,,,,,,,,,,,,,,,,,0,0,0,0,1,0,1,0,0,47,47,47,,,,,,,,,,,,,,,,,,,,,,,,,,,,,,,,,,,,,,,,,,,,,,,,,,,,,,,,,,,,,,,1636126933.6880147,,,,,,,,,,556.1413240432739,None,,,,,,,,,,,,,,,,,,,,,,,,,,,,,,,,,,,,,,,,,,553.8295409679413,None,554.8188090324402,None,1,1,1.1988699436187744,554.8188090324402,None,8003,001,11,2021_Nov_05_1033,task-switching-replication,2021.2.3,59.98435428533836,
2,49,experiment,11,sitting,noswitch,incongruant,solid,square,blue,stimuli/solid-rectangle.png,stimuli/blue-square.png,2,,,,,,,,,,,,,,,,,,,,,,,,,0,0,0,0,1,0,1,0,0,48,48,48,,,,,,,,,,,,,,,,,,,,,,,,,,,,,,,,,,,,,,,,,,,,,,,,,,,,,,,,,,,,,,,1636126935.641754,,,,,,,,,,558.0944709777832,None,,,,,,,,,,,,,,,,,,,,,,,,,,,,,,,,,,,,,,,,,,556.370766878128,None,557.3600668907166,None,2,1,0.6097960472106934,557.3600668907166,None,8003,001,11,2021_Nov_05_1033,task-switching-replication,2021.2.3,59.98435428533836,
,,,11,,,,,,,,,,,,,,,,,,,,,,,,,,,,,,,,,,0,0,0,0,1,0,1,0,,,,,,,,,,,,,,,,,,,,,,,,,,,,,,,,,,,,,,,,,,,,,,,,,,,,,,,,,,,,,,,,,,,,,,,,,,,,,,,,,,,,,,,,,,,,,,,,,,,,,,,,,,,,,,,,,,,,,,,,,,,,,,,,,8003,001,11,2021_Nov_05_1033,task-switching-replication,2021.2.3,59.98435428533836,
3,1,experiment,11,sitting,buffer,buffer,solid,square,yellow,stimuli/solid-rectangle.png,stimuli/yellow-square.png,1,,,,,,,,,,,,,,,,,,,,,,,,,0,0,0,0,2,0,2,0,0,0,0,0,,,,,,,,,,,,,,,,,,,,,,,,,,,,,,,,,,,,,,,,,,,,,,,,,,,,,,,,,,,,,,,1636126940.5043983,,,,,,,,,,562.9579610824585,None,,,,,,,,,,,,,,,,,,,,,,,,,,,,,,558.3241899013519,None,2,1.2986209392547607,558.3241899013519,None,559.7280769348145,None,2,1.3287250995635986,559.7280769348145,None,561.2251060009003,None,562.2272529602051,None,1,1,0.6177799701690674,562.2272529602051,None,8003,001,11,2021_Nov_05_1033,task-switching-replication,2021.2.3,59.98435428533836,
3,2,experiment,11,sitting,switch,incongruant,dashed,square,yellow,stimuli/dashed-rectangle.png,stimuli/yellow-square.png,2,,,,,,,,,,,,,,,,,,,,,,,,,0,0,0,0,2,0,2,0,0,1,1,1,,,,,0,0,0,0,,,,,,,,,,,,,,,,,,,,,,,,,,,,,,,,,,,,,,,,,,,,,,,,,,,,,,,1636126942.573588,,,,,,,,,,,,,,,,564.9988100528717,566.0231699943542,565.0320510864258,None,,,,,,,,,,,,,,,,,,,,,,,,,,,,,,,,,,563.1876020431519,None,564.1777038574219,None,1,0,0.6960020065307617,564.1777038574219,None,8003,001,11,2021_Nov_05_1033,task-switching-replication,2021.2.3,59.98435428533836,
3,2,experiment,11,sitting,switch,incongruant,dashed,square,yellow,stimuli/dashed-rectangle.png,stimuli/yellow-square.png,2,,,,,,,,,,,,,,,,,,,,,,,,,0,0,0,0,2,0,2,0,0,1,1,1,,,,,,,,,,,,,,,,,,,,,,,,,,,,,,,,,,,,,,,,,,,,,,,,,,,,,,,,,,,,,,,,,,,,,,,,,570.0370059013367,None,,,,,,,,,,,,,,,,,,,,,,,,,,,,,,,,,,,,,,,,,,,,,,,,,,,8003,001,11,2021_Nov_05_1033,task-switching-replication,2021.2.3,59.98435428533836,
3,3,experiment,11,sitting,switch,congruant,solid,triangle,blue,stimuli/solid-rectangle.png,stimuli/blue-triangle.png,2,,,,,,,,,,,,,,,,,,,,,,,,,0,0,0,0,2,0,2,0,0,2,2,2,,,,,,,,,,,,,,,,,,,,,,,,,,,,,,,,,,,,,,,,,,,,,,,,,,,,,,,,,,,,,,,1636126949.7380261,,,,,,,,,,572.1915619373322,None,,,,,,,,,,,,,,,,,,,,,,,,,,,,,,,,,,,,,,,,,,570.2339730262756,None,571.2244839668274,None,2,1,0.8672959804534912,571.2244839668274,None,8003,001,11,2021_Nov_05_1033,task-switching-replication,2021.2.3,59.98435428533836,
3,4,experiment,11,sitting,noswitch,incongruant,solid,triangle,yellow,stimuli/solid-rectangle.png,stimuli/yellow-triangle.png,1,,,,,,,,,,,,,,,,,,,,,,,,,0,0,0,0,2,0,2,0,0,3,3,3,,,,,,,,,,,,,,,,,,,,,,,,,,,,,,,,,,,,,,,,,,,,,,,,,,,,,,,,,,,,,,,1636126951.6317422,,,,,,,,,,574.0842909812927,None,,,,,,,,,,,,,,,,,,,,,,,,,,,,,,,,,,,,,,,,,,572.4207470417023,None,573.4105188846588,None,1,1,0.5251979827880859,573.4105188846588,None,8003,001,11,2021_Nov_05_1033,task-switching-replication,2021.2.3,59.98435428533836,
3,5,experiment,11,sitting,switch,congruant,dashed,triangle,blue,stimuli/dashed-rectangle.png,stimuli/blue-triangle.png,1,,,,,,,,,,,,,,,,,,,,,,,,,0,0,0,0,2,0,2,0,0,4,4,4,,,,,,,,,,,,,,,,,,,,,,,,,,,,,,,,,,,,,,,,,,,,,,,,,,,,,,,,,,,,,,,1636126953.8774602,,,,,,,,,,576.3309450149536,None,,,,,,,,,,,,,,,,,,,,,,,,,,,,,,,,,,,,,,,,,,574.3138198852539,None,575.3044879436493,None,1,1,0.9241399765014648,575.3044879436493,None,8003,001,11,2021_Nov_05_1033,task-switching-replication,2021.2.3,59.98435428533836,
3,6,experiment,11,sitting,noswitch,congruant,dashed,triangle,blue,stimuli/dashed-rectangle.png,stimuli/blue-triangle.png,1,,,,,,,,,,,,,,,,,,,,,,,,,0,0,0,0,2,0,2,0,0,5,5,5,,,,,,,,,,,,,,,,,,,,,,,,,,,,,,,,,,,,,,,,,,,,,,,,,,,,,,,,,,,,,,,1636126955.590119,,,,,,,,,,578.0437779426575,None,,,,,,,,,,,,,,,,,,,,,,,,,,,,,,,,,,,,,,,,,,576.5601799488068,None,577.5505938529968,None,1,1,0.3888850212097168,577.5505938529968,None,8003,001,11,2021_Nov_05_1033,task-switching-replication,2021.2.3,59.98435428533836,
3,7,experiment,11,sitting,noswitch,incongruant,dashed,square,blue,stimuli/dashed-rectangle.png,stimuli/blue-square.png,2,,,,,,,,,,,,,,,,,,,,,,,,,0,0,0,0,2,0,2,0,0,6,6,6,,,,,,,,,,,,,,,,,,,,,,,,,,,,,,,,,,,,,,,,,,,,,,,,,,,,,,,,,,,,,,,1636126957.480739,,,,,,,,,,579.9344608783722,None,,,,,,,,,,,,,,,,,,,,,,,,,,,,,,,,,,,,,,,,,,578.2740070819855,None,579.2631759643555,None,2,1,0.5557749271392822,579.2631759643555,None,8003,001,11,2021_Nov_05_1033,task-switching-replication,2021.2.3,59.98435428533836,
3,8,experiment,11,sitting,noswitch,congruant,dashed,square,blue,stimuli/dashed-rectangle.png,stimuli/blue-square.png,2,,,,,,,,,,,,,,,,,,,,,,,,,0,0,0,0,2,0,2,0,0,7,7,7,,,,,,,,,,,,,,,,,,,,,,,,,,,,,,,,,,,,,,,,,,,,,,,,,,,,,,,,,,,,,,,1636126959.1345358,,,,,,,,,,581.5881779193878,None,,,,,,,,,,,,,,,,,,,,,,,,,,,,,,,,,,,,,,,,,,580.1636919975281,None,581.1542139053345,None,2,1,0.3194401264190674,581.1542139053345,None,8003,001,11,2021_Nov_05_1033,task-switching-replication,2021.2.3,59.98435428533836,
3,9,experiment,11,sitting,switch,congruant,solid,square,blue,stimuli/solid-rectangle.png,stimuli/blue-square.png,2,,,,,,,,,,,,,,,,,,,,,,,,,0,0,0,0,2,0,2,0,0,8,8,8,,,,,,,,,,,,,,,,,,,,,,,,,,,,,,,,,,,,,,,,,,,,,,,,,,,,,,,,,,,,,,,1636126960.9666514,,,,,,,,,,583.4199290275574,None,,,,,,,,,,,,,,,,,,,,,,,,,,,,,,,,,,,,,,,,,,581.8179819583893,None,582.8083579540253,None,2,1,0.49123501777648926,582.8083579540253,None,8003,001,11,2021_Nov_05_1033,task-switching-replication,2021.2.3,59.98435428533836,
3,10,experiment,11,sitting,noswitch,congruant,solid,square,blue,stimuli/solid-rectangle.png,stimuli/blue-square.png,2,,,,,,,,,,,,,,,,,,,,,,,,,0,0,0,0,2,0,2,0,0,9,9,9,,,,,,,,,,,,,,,,,,,,,,,,,,,,,,,,,,,,,,,,,,,,,,,,,,,,,,,,,,,,,,,1636126962.6790614,,,,,,,,,,585.1326489448547,None,,,,,,,,,,,,,,,,,,,,,,,,,,,,,,,,,,,,,,,,,,583.6492519378662,None,584.6393229961395,None,2,1,0.3773059844970703,584.6393229961395,None,8003,001,11,2021_Nov_05_1033,task-switching-replication,2021.2.3,59.98435428533836,
3,11,experiment,11,sitting,switch,congruant,dashed,square,blue,stimuli/dashed-rectangle.png,stimuli/blue-square.png,2,,,,,,,,,,,,,,,,,,,,,,,,,0,0,0,0,2,0,2,0,0,10,10,10,,,,,,,,,,,,,,,,,,,,,,,,,,,,,,,,,,,,,,,,,,,,,,,,,,,,,,,,,,,,,,,1636126964.7474918,,,,,,,,,,587.2008168697357,None,,,,,,,,,,,,,,,,,,,,,,,,,,,,,,,,,,,,,,,,,,585.3622078895569,None,586.3520338535309,None,2,1,0.7256629467010498,586.3520338535309,None,8003,001,11,2021_Nov_05_1033,task-switching-replication,2021.2.3,59.98435428533836,
3,12,experiment,11,sitting,switch,congruant,solid,triangle,blue,stimuli/solid-rectangle.png,stimuli/blue-triangle.png,2,,,,,,,,,,,,,,,,,,,,,,,,,0,0,0,0,2,0,2,0,0,11,11,11,,,,,,,,,,,,,,,,,,,,,,,,,,,,,,,,,,,,,,,,,,,,,,,,,,,,,,,,,,,,,,,1636126966.9932833,,,,,,,,,,589.4468159675598,None,,,,,,,,,,,,,,,,,,,,,,,,,,,,,,,,,,,,,,,,,,587.430223941803,None,588.4202179908752,None,2,1,0.9273538589477539,588.4202179908752,None,8003,001,11,2021_Nov_05_1033,task-switching-replication,2021.2.3,59.98435428533836,
3,13,experiment,11,sitting,switch,congruant,dashed,square,yellow,stimuli/dashed-rectangle.png,stimuli/yellow-square.png,2,,,,,,,,,,,,,,,,,,,,,,,,,0,0,0,0,2,0,2,0,0,12,12,12,,,,,,,,,,,,,,,,,,,,,,,,,,,,,,,,,,,,,,,,,,,,,,,,,,,,,,,,,,,,,,,1636126969.2987375,,,,,,,,,,591.752012014389,None,,,,,,,,,,,,,,,,,,,,,,,,,,,,,,,,,,,,,,,,,,589.6762180328369,None,590.6662349700928,None,2,1,0.9604449272155762,590.6662349700928,None,8003,001,11,2021_Nov_05_1033,task-switching-replication,2021.2.3,59.98435428533836,
3,14,experiment,11,sitting,noswitch,incongruant,dashed,triangle,blue,stimuli/dashed-rectangle.png,stimuli/blue-triangle.png,1,,,,,,,,,,,,,,,,,,,,,,,,,0,0,0,0,2,0,2,0,0,13,13,13,,,,,,,,,,,,,,,,,,,,,,,,,,,,,,,,,,,,,,,,,,,,,,,,,,,,,,,,,,,,,,,1636126970.9552333,,,,,,,,,,593.4078540802002,None,,,,,,,,,,,,,,,,,,,,,,,,,,,,,,,,,,,,,,,,,,591.9814438819885,None,592.9714250564575,None,1,1,0.3121628761291504,592.9714250564575,None,8003,001,11,2021_Nov_05_1033,task-switching-replication,2021.2.3,59.98435428533836,
3,15,experiment,11,sitting,noswitch,incongruant,dashed,square,yellow,stimuli/dashed-rectangle.png,stimuli/yellow-square.png,2,,,,,,,,,,,,,,,,,,,,,,,,,0,0,0,0,2,0,2,0,0,14,14,14,,,,,,,,,,,,,,,,,,,,,,,,,,,,,,,,,,,,,,,,,,,,,,,,,,,,,,,,,,,,,,,1636126972.8466525,,,,,,,,,,595.2992179393768,None,,,,,,,,,,,,,,,,,,,,,,,,,,,,,,,,,,,,,,,,,,593.6372618675232,None,594.626708984375,None,2,1,0.518989086151123,594.626708984375,None,8003,001,11,2021_Nov_05_1033,task-switching-replication,2021.2.3,59.98435428533836,
3,16,experiment,11,sitting,switch,congruant,solid,triangle,blue,stimuli/solid-rectangle.png,stimuli/blue-triangle.png,2,,,,,,,,,,,,,,,,,,,,,,,,,0,0,0,0,2,0,2,0,0,15,15,15,,,,,,,,,,,,,,,,,,,,,,,,,,,,,,,,,,,,,,,,,,,,,,,,,,,,,,,,,,,,,,,1636126974.7948377,,,,,,,,,,597.2483620643616,None,,,,,,,,,,,,,,,,,,,,,,,,,,,,,,,,,,,,,,,,,,595.5293300151825,None,596.5183448791504,None,2,1,0.6250967979431152,596.5183448791504,None,8003,001,11,2021_Nov_05_1033,task-switching-replication,2021.2.3,59.98435428533836,
3,17,experiment,11,sitting,noswitch,congruant,solid,triangle,blue,stimuli/solid-rectangle.png,stimuli/blue-triangle.png,2,,,,,,,,,,,,,,,,,,,,,,,,,0,0,0,0,2,0,2,0,0,16,16,16,,,,,,,,,,,,,,,,,,,,,,,,,,,,,,,,,,,,,,,,,,,,,,,,,,,,,,,,,,,,,,,1636126976.5655882,,,,,,,,,,599.0190229415894,None,,,,,,,,,,,,,,,,,,,,,,,,,,,,,,,,,,,,,,,,,,597.4777190685272,None,598.4670388698578,None,2,1,0.44341588020324707,598.4670388698578,None,8003,001,11,2021_Nov_05_1033,task-switching-replication,2021.2.3,59.98435428533836,
3,18,experiment,11,sitting,switch,incongruant,dashed,triangle,yellow,stimuli/dashed-rectangle.png,stimuli/yellow-triangle.png,1,,,,,,,,,,,,,,,,,,,,,,,,,0,0,0,0,2,0,2,0,0,17,17,17,,,,,,,,,,,,,,,,,,,,,,,,,,,,,,,,,,,,,,,,,,,,,,,,,,,,,,,,,,,,,,,1636126978.5141776,,,,,,,,,,600.9675979614258,None,,,,,,,,,,,,,,,,,,,,,,,,,,,,,,,,,,,,,,,,,,599.2479898929596,None,600.2374830245972,None,1,1,0.6128618717193604,600.2374830245972,None,8003,001,11,2021_Nov_05_1033,task-switching-replication,2021.2.3,59.98435428533836,
3,19,experiment,11,sitting,noswitch,congruant,dashed,triangle,yellow,stimuli/dashed-rectangle.png,stimuli/yellow-triangle.png,1,,,,,,,,,,,,,,,,,,,,,,,,,0,0,0,0,2,0,2,0,0,18,18,18,,,,,,,,,,,,,,,,,,,,,,,,,,,,,,,,,,,,,,,,,,,,,,,,,,,,,,,,,,,,,,,1636126980.4048622,,,,,,,,,,602.8582210540771,None,,,,,,,,,,,,,,,,,,,,,,,,,,,,,,,,,,,,,,,,,,601.19690990448,None,602.1869778633118,None,1,1,0.5295188426971436,602.1869778633118,None,8003,001,11,2021_Nov_05_1033,task-switching-replication,2021.2.3,59.98435428533836,
3,20,experiment,11,sitting,noswitch,congruant,dashed,triangle,blue,stimuli/dashed-rectangle.png,stimuli/blue-triangle.png,1,,,,,,,,,,,,,,,,,,,,,,,,,0,0,0,0,2,0,2,0,0,19,19,19,,,,,,,,,,,,,,,,,,,,,,,,,,,,,,,,,,,,,,,,,,,,,,,,,,,,,,,,,,,,,,,1636126982.4151363,,,,,,,,,,604.8687679767609,None,,,,,,,,,,,,,,,,,,,,,,,,,,,,,,,,,,,,,,,,,,603.087611913681,None,604.0784530639648,None,1,1,0.6783759593963623,604.0784530639648,None,8003,001,11,2021_Nov_05_1033,task-switching-replication,2021.2.3,59.98435428533836,
3,21,experiment,11,sitting,noswitch,congruant,dashed,triangle,yellow,stimuli/dashed-rectangle.png,stimuli/yellow-triangle.png,1,,,,,,,,,,,,,,,,,,,,,,,,,0,0,0,0,2,0,2,0,0,20,20,20,,,,,,,,,,,,,,,,,,,,,,,,,,,,,,,,,,,,,,,,,,,,,,,,,,,,,,,,,,,,,,,1636126984.3052382,,,,,,,,,,606.7586569786072,None,,,,,,,,,,,,,,,,,,,,,,,,,,,,,,,,,,,,,,,,,,605.0983030796051,None,606.088406085968,None,1,1,0.5190470218658447,606.088406085968,None,8003,001,11,2021_Nov_05_1033,task-switching-replication,2021.2.3,59.98435428533836,
3,22,experiment,11,sitting,switch,congruant,solid,square,yellow,stimuli/solid-rectangle.png,stimuli/yellow-square.png,1,,,,,,,,,,,,,,,,,,,,,,,,,0,0,0,0,2,0,2,0,0,21,21,21,,,,,,,,,,,,,,,,,,,,,,,,,,,,,,,,,,,,,,,,,,,,,,,,,,,,,,,,,,,,,,,1636126986.847884,,,,,,,,,,609.301353931427,None,,,,,,,,,,,,,,,,,,,,,,,,,,,,,,,,,,,,,,,,,,606.9887540340424,None,607.9786450862885,None,1,1,1.212636947631836,607.9786450862885,None,8003,001,11,2021_Nov_05_1033,task-switching-replication,2021.2.3,59.98435428533836,
3,23,experiment,11,sitting,switch,incongruant,dashed,square,blue,stimuli/dashed-rectangle.png,stimuli/blue-square.png,2,,,,,,,,,,,,,,,,,,,,,,,,,0,0,0,0,2,0,2,0,0,22,22,22,,,,,,,,,,,,,,,,,,,,,,,,,,,,,,,,,,,,,,,,,,,,,,,,,,,,,,,,,,,,,,,1636126989.212684,,,,,,,,,,611.6652159690857,None,,,,,,,,,,,,,,,,,,,,,,,,,,,,,,,,,,,,,,,,,,609.5307919979095,None,610.5206868648529,None,2,1,1.0209131240844727,610.5206868648529,None,8003,001,11,2021_Nov_05_1033,task-switching-replication,2021.2.3,59.98435428533836,
3,24,experiment,11,sitting,noswitch,incongruant,dashed,triangle,yellow,stimuli/dashed-rectangle.png,stimuli/yellow-triangle.png,1,,,,,,,,,,,,,,,,,,,,,,,,,0,0,0,0,2,0,2,0,0,23,23,23,,,,,,,,,,,,,,,,,,,,,,,,,,,,,,,,,,,,,,,,,,,,,,,,,,,,,,,,,,,,,,,1636126991.1653054,,,,,,,,,,613.6178860664368,None,,,,,,,,,,,,,,,,,,,,,,,,,,,,,,,,,,,,,,,,,,611.8947329521179,None,612.8868029117584,None,1,1,0.5826311111450195,612.8868029117584,None,8003,001,11,2021_Nov_05_1033,task-switching-replication,2021.2.3,59.98435428533836,
3,25,experiment,11,sitting,switch,congruant,solid,triangle,yellow,stimuli/solid-rectangle.png,stimuli/yellow-triangle.png,1,,,,,,,,,,,,,,,,,,,,,,,,,0,0,0,0,2,0,2,0,0,24,24,24,,,,,,,,,,,,,,,,,,,,,,,,,,,,,,,,,,,,,,,,,,,,,,,,,,,,,,,,,,,,,,,1636126993.1738114,,,,,,,,,,615.6272919178009,None,,,,,,,,,,,,,,,,,,,,,,,,,,,,,,,,,,,,,,,,,,613.847512960434,None,614.8377749919891,None,1,1,0.680433988571167,614.8377749919891,None,8003,001,11,2021_Nov_05_1033,task-switching-replication,2021.2.3,59.98435428533836,
3,26,experiment,11,sitting,noswitch,incongruant,solid,triangle,blue,stimuli/solid-rectangle.png,stimuli/blue-triangle.png,2,,,,,,,,,,,,,,,,,,,,,,,,,0,0,0,0,2,0,2,0,0,25,25,25,,,,,,,,,,,,,,,,,,,,,,,,,,,,,,,,,,,,,,,,,,,,,,,,,,,,,,,,,,,,,,,1636126995.0640044,,,,,,,,,,617.5171689987183,None,,,,,,,,,,,,,,,,,,,,,,,,,,,,,,,,,,,,,,,,,,615.856733083725,None,616.8467800617218,None,2,1,0.5663039684295654,616.8467800617218,None,8003,001,11,2021_Nov_05_1033,task-switching-replication,2021.2.3,59.98435428533836,
3,27,experiment,11,sitting,switch,incongruant,dashed,triangle,blue,stimuli/dashed-rectangle.png,stimuli/blue-triangle.png,1,,,,,,,,,,,,,,,,,,,,,,,,,0,0,0,0,2,0,2,0,0,26,26,26,,,,,,,,,,,,,,,,,,,,,,,,,,,,,,,,,,,,,,,,,,,,,,,,,,,,,,,,,,,,,,,1636126997.1920624,,,,,,,,,,619.6449148654938,None,,,,,,,,,,,,,,,,,,,,,,,,,,,,,,,,,,,,,,,,,,617.7462968826294,None,618.7363488674164,None,1,1,0.749809980392456,618.7363488674164,None,8003,001,11,2021_Nov_05_1033,task-switching-replication,2021.2.3,59.98435428533836,
3,28,experiment,11,sitting,switch,incongruant,solid,square,blue,stimuli/solid-rectangle.png,stimuli/blue-square.png,2,,,,,,,,,,,,,,,,,,,,,,,,,0,0,0,0,2,0,2,0,0,27,27,27,,,,,,,,,,,,,,,,,,,,,,,,,,,,,,,,,,,,,,,,,,,,,,,,,,,,,,,,,,,,,,,1636126999.2622032,,,,,,,,,,621.7150390148163,None,,,,,,,,,,,,,,,,,,,,,,,,,,,,,,,,,,,,,,,,,,619.8744258880615,None,620.864284992218,None,2,1,0.6969280242919922,620.864284992218,None,8003,001,11,2021_Nov_05_1033,task-switching-replication,2021.2.3,59.98435428533836,
3,29,experiment,11,sitting,noswitch,incongruant,solid,triangle,yellow,stimuli/solid-rectangle.png,stimuli/yellow-triangle.png,1,,,,,,,,,,,,,,,,,,,,,,,,,0,0,0,0,2,0,2,0,0,28,28,28,,,,,,,,,,,,,,,,,,,,,,,,,,,,,,,,,,,,,,,,,,,,,,,,,,,,,,,,,,,,,,,1636127001.212379,,,,,,,,,,623.6654300689697,None,,,,,,,,,,,,,,,,,,,,,,,,,,,,,,,,,,,,,,,,,,621.9451570510864,None,622.9353179931641,None,1,1,0.6144320964813232,622.9353179931641,None,8003,001,11,2021_Nov_05_1033,task-switching-replication,2021.2.3,59.98435428533836,
3,30,experiment,11,sitting,noswitch,congruant,solid,square,yellow,stimuli/solid-rectangle.png,stimuli/yellow-square.png,1,,,,,,,,,,,,,,,,,,,,,,,,,0,0,0,0,2,0,2,0,0,29,29,29,0,0,0,0,,,,,,,,,,,,,,,,,,,,,,,,,,,,,,,,,,,,,,,,,,,,,,,,,,,,,,,,,,,1636127003.0469012,,,,,,,,,,,,625.4722208976746,626.4919300079346,625.5044469833374,None,,,,,,,,,,,,,,,,,,,,,,,,,,,,,,,,,,,,,,623.8948650360107,None,624.884614944458,None,2,0,0.4659841060638428,624.884614944458,None,8003,001,11,2021_Nov_05_1033,task-switching-replication,2021.2.3,59.98435428533836,
