blockNum,trialNum,trialType,condition,posture,switchTrialType,congruantTrialType,cueType,shapeType,shapeColor,cueFileName,stimuliFileName,correctAnswer,untimedTrials.thisRepN,untimedTrials.thisTrialN,untimedTrials.thisN,untimedTrials.thisIndex,selectSolid1.thisRepN,selectSolid1.thisTrialN,selectSolid1.thisN,selectSolid1.thisIndex,selectDashed1.thisRepN,selectDashed1.thisTrialN,selectDashed1.thisN,selectDashed1.thisIndex,timedTrials.thisRepN,timedTrials.thisTrialN,timedTrials.thisN,timedTrials.thisIndex,selectSolid2.thisRepN,selectSolid2.thisTrialN,selectSolid2.thisN,selectSolid2.thisIndex,selectDashed2.thisRepN,selectDashed2.thisTrialN,selectDashed2.thisN,selectDashed2.thisIndex,postures.thisRepN,postures.thisTrialN,postures.thisN,postures.thisIndex,blocks.thisRepN,blocks.thisTrialN,blocks.thisN,blocks.thisIndex,trials.thisRepN,trials.thisTrialN,trials.thisN,trials.thisIndex,selectSolid.thisRepN,selectSolid.thisTrialN,selectSolid.thisN,selectSolid.thisIndex,selectDashed.thisRepN,selectDashed.thisTrialN,selectDashed.thisN,selectDashed.thisIndex,text_3.started,text_3.stopped,key_resp_2.keys,key_resp_2.rt,key_resp_2.started,key_resp_2.stopped,image_4.started,image_4.stopped,key_resp_4.keys,key_resp_4.rt,key_resp_4.started,key_resp_4.stopped,image_5.started,image_5.stopped,key_resp_5.keys,key_resp_5.rt,key_resp_5.started,key_resp_5.stopped,image_6.started,image_6.stopped,key_resp_6.keys,key_resp_6.rt,key_resp_6.started,key_resp_6.stopped,image_7.started,image_7.stopped,key_resp_7.keys,key_resp_7.rt,key_resp_7.started,key_resp_7.stopped,image_8.started,image_8.stopped,key_resp_8.keys,key_resp_8.rt,key_resp_8.started,key_resp_8.stopped,image_9.started,image_9.stopped,key_resp_9.keys,key_resp_9.rt,key_resp_9.started,key_resp_9.stopped,image_10.started,image_10.stopped,key_resp_10.keys,key_resp_10.rt,key_resp_10.started,key_resp_10.stopped,image_11.started,image_11.stopped,key_resp_11.keys,key_resp_11.rt,key_resp_11.started,key_resp_11.stopped,utcTime,cue_untimed_image.started,cue_untimed_image.stopped,stimuli_untimed_image.started,stimuli_untimed_image.stopped,untimed_resp.keys,untimed_resp.corr,untimed_resp.rt,untimed_resp.started,untimed_resp.stopped,sound_2.started,sound_2.stopped,image_3.started,image_3.stopped,text_2.started,text_2.stopped,sound_1.started,sound_1.stopped,image_2.started,image_2.stopped,image_12.started,image_12.stopped,key_resp_12.keys,key_resp_12.rt,key_resp_12.started,key_resp_12.stopped,image_13.started,image_13.stopped,key_resp_13.keys,key_resp_13.rt,key_resp_13.started,key_resp_13.stopped,cue_timed_image.started,cue_timed_image.stopped,stimuli_timed_image.started,stimuli_timed_image.stopped,timed_resp.keys,timed_resp.corr,timed_resp.rt,timed_resp.started,timed_resp.stopped,image.started,image.stopped,key_response.keys,key_response.rt,key_response.started,key_response.stopped,text.started,text.stopped,key_resp.keys,key_resp.rt,key_resp.started,key_resp.stopped,cue_image.started,cue_image.stopped,stimuli_image.started,stimuli_image.stopped,exp_resp.keys,exp_resp.corr,exp_resp.rt,exp_resp.started,exp_resp.stopped,participant,session,condition,date,expName,psychopyVersion,frameRate,
,,,13,,,,,,,,,,,,,,,,,,,,,,,,,,,,,,,,,,,,,,,,,,,,,,,,,,,,,,107.11090087890625,None,1,28.021802186965942,107.11090087890625,None,,,,,,,,,,,,,,,,,,,,,,,,,,,,,,,,,,,,,,,,,,,,,,,,,,,,,,,,,,,,,,,,,,,,,,,,,,,,,,,,,,,,,,,,,,,,,,,,,,,,,,,,,,,,,,,8003,001,13,2021_Nov_05_1447,task-switching-replication,2021.2.3,60.0056367447084,
,,,13,,,,,,,,,,,,,,,,,,,,,,,,,,,,,,,,,,,,,,,,,,,,,,,,,,,,,,,,,,,,135.27068781852722,None,1,1.4467761516571045,135.27068781852722,None,,,,,,,,,,,,,,,,,,,,,,,,,,,,,,,,,,,,,,,,,,,,,,,,,,,,,,,,,,,,,,,,,,,,,,,,,,,,,,,,,,,,,,,,,,,,,,,,,,,,,,,,,8003,001,13,2021_Nov_05_1447,task-switching-replication,2021.2.3,60.0056367447084,
,,,13,,,,,,,,,,,,,,,,,,,,,,,,,,,,,,,,,,,,,,,,,,,,,,,,,,,,,,,,,,,,,,,,,,136.84392499923706,None,1,10.641432046890259,136.84392499923706,None,,,,,,,,,,,,,,,,,,,,,,,,,,,,,,,,,,,,,,,,,,,,,,,,,,,,,,,,,,,,,,,,,,,,,,,,,,,,,,,,,,,,,,,,,,,,,,,,,,,8003,001,13,2021_Nov_05_1447,task-switching-replication,2021.2.3,60.0056367447084,
,,,13,,,,,,,,,,,,,,,,,,,,,,,,,,,,,,,,,,,,,,,,,,,,,,,,,,,,,,,,,,,,,,,,,,,,,,,,147.59692692756653,None,2,4.253475904464722,147.59692692756653,None,,,,,,,,,,,,,,,,,,,,,,,,,,,,,,,,,,,,,,,,,,,,,,,,,,,,,,,,,,,,,,,,,,,,,,,,,,,,,,,,,,,,,,,,,,,,,8003,001,13,2021_Nov_05_1447,task-switching-replication,2021.2.3,60.0056367447084,
,,,13,,,,,,,,,,,,,,,,,,,,,,,,,,,,,,,,,,,,,,,,,,,,,,,,,,,,,,,,,,,,,,,,,,,,,,,,,,,,,,151.96708798408508,None,2,2.320425033569336,151.96708798408508,None,,,,,,,,,,,,,,,,,,,,,,,,,,,,,,,,,,,,,,,,,,,,,,,,,,,,,,,,,,,,,,,,,,,,,,,,,,,,,,,,,,,,,,,8003,001,13,2021_Nov_05_1447,task-switching-replication,2021.2.3,60.0056367447084,
,,,13,,,,,,,,,,,,,,,,,,,,,,,,,,,,,,,,,,,,,,,,,,,,,,,,,,,,,,,,,,,,,,,,,,,,,,,,,,,,,,,,,,,,154.39023399353027,None,1,7.80783486366272,154.39023399353027,None,,,,,,,,,,,,,,,,,,,,,,,,,,,,,,,,,,,,,,,,,,,,,,,,,,,,,,,,,,,,,,,,,,,,,,,,,,,,,,,,,8003,001,13,2021_Nov_05_1447,task-switching-replication,2021.2.3,60.0056367447084,
,,,13,,,,,,,,,,,,,,,,,,,,,,,,,,,,,,,,,,,,,,,,,,,,,,,,,,,,,,,,,,,,,,,,,,,,,,,,,,,,,,,,,,,,,,,,,,162.2826588153839,None,2,5.168065786361694,162.2826588153839,None,,,,,,,,,,,,,,,,,,,,,,,,,,,,,,,,,,,,,,,,,,,,,,,,,,,,,,,,,,,,,,,,,,,,,,,,,,,8003,001,13,2021_Nov_05_1447,task-switching-replication,2021.2.3,60.0056367447084,
,,,13,,,,,,,,,,,,,,,,,,,,,,,,,,,,,,,,,,,,,,,,,,,,,,,,,,,,,,,,,,,,,,,,,,,,,,,,,,,,,,,,,,,,,,,,,,,,,,,,167.56686401367188,None,2,1.6714990139007568,167.56686401367188,None,,,,,,,,,,,,,,,,,,,,,,,,,,,,,,,,,,,,,,,,,,,,,,,,,,,,,,,,,,,,,,,,,,,,,8003,001,13,2021_Nov_05_1447,task-switching-replication,2021.2.3,60.0056367447084,
,,,13,,,,,,,,,,,,,,,,,,,,,,,,,,,,,,,,,,,,,,,,,,,,,,,,,,,,,,,,,,,,,,,,,,,,,,,,,,,,,,,,,,,,,,,,,,,,,,,,,,,,,,169.32129883766174,None,2,16.71500515937805,169.32129883766174,None,,,,,,,,,,,,,,,,,,,,,,,,,,,,,,,,,,,,,,,,,,,,,,,,,,,,,,,,,,,,,,,8003,001,13,2021_Nov_05_1447,task-switching-replication,2021.2.3,60.0056367447084,
1,1,untimed,13,sitting,buffer,buffer,dashed,triangle,yellow,stimuli/dashed-rectangle.png,stimuli/yellow-triangle.png,2,0,0,0,0,,,,,0,0,0,0,,,,,,,,,,,,,,,,,,,,,,,,,,,,,,,,,,,,,,,,,,,,,,,,,,,,,,,,,,,,,,,,,,,,,,,,,,,,,,,,,,,,,,,1636141732.3004212,186.1947250366211,None,187.20071697235107,None,1,0,0.5513718128204346,187.20071697235107,None,187.85406029224396,188.8728039264679,187.88716983795166,None,,,,,,,,,,,,,,,,,,,,,,,,,,,,,,,,,,,,,,,,,,,,,,,,,8003,001,13,2021_Nov_05_1447,task-switching-replication,2021.2.3,60.0056367447084,
1,1,untimed,13,sitting,buffer,buffer,dashed,triangle,yellow,stimuli/dashed-rectangle.png,stimuli/yellow-triangle.png,2,0,0,0,0,,,,,,,,,,,,,,,,,,,,,,,,,,,,,,,,,,,,,,,,,,,,,,,,,,,,,,,,,,,,,,,,,,,,,,,,,,,,,,,,,,,,,,,,,,,,,,,,,,,,,,,,,,,,,192.88385391235352,None,,,,,,,,,,,,,,,,,,,,,,,,,,,,,,,,,,,,,,,,,,,,,,,8003,001,13,2021_Nov_05_1447,task-switching-replication,2021.2.3,60.0056367447084,
1,2,untimed,13,sitting,switch,congruant,solid,square,blue,stimuli/solid-rectangle.png,stimuli/blue-square.png,2,0,1,1,1,,,,,,,,,,,,,,,,,,,,,,,,,,,,,,,,,,,,,,,,,,,,,,,,,,,,,,,,,,,,,,,,,,,,,,,,,,,,,,,,,,,,,,,,,,,,,,,1636141739.2413352,193.11373782157898,None,194.08602786064148,None,2,1,0.6162421703338623,194.08602786064148,None,,,,,194.82311391830444,None,,,,,,,,,,,,,,,,,,,,,,,,,,,,,,,,,,,,,,,,,,,,,,,8003,001,13,2021_Nov_05_1447,task-switching-replication,2021.2.3,60.0056367447084,
1,3,untimed,13,sitting,noswitch,incongruant,solid,triangle,yellow,stimuli/solid-rectangle.png,stimuli/yellow-triangle.png,1,0,2,2,2,,,,,,,,,,,,,,,,,,,,,,,,,,,,,,,,,,,,,,,,,,,,,,,,,,,,,,,,,,,,,,,,,,,,,,,,,,,,,,,,,,,,,,,,,,,,,,,1636141741.0602484,195.05283999443054,None,196.02486085891724,None,1,1,0.5002851486206055,196.02486085891724,None,,,,,196.6418800354004,None,,,,,,,,,,,,,,,,,,,,,,,,,,,,,,,,,,,,,,,,,,,,,,,8003,001,13,2021_Nov_05_1447,task-switching-replication,2021.2.3,60.0056367447084,
1,4,untimed,13,sitting,switch,congruant,dashed,square,blue,stimuli/dashed-rectangle.png,stimuli/blue-square.png,1,0,3,3,3,,,,,0,0,0,0,,,,,,,,,,,,,,,,,,,,,,,,,,,,,,,,,,,,,,,,,,,,,,,,,,,,,,,,,,,,,,,,,,,,,,,,,,,,,,,,,,,,,,,1636141743.0620172,196.8717908859253,None,197.84393882751465,None,2,0,0.6547119617462158,197.84393882751465,None,198.61570632457733,199.66835188865662,198.6480770111084,None,,,,,,,,,,,,,,,,,,,,,,,,,,,,,,,,,,,,,,,,,,,,,,,,,8003,001,13,2021_Nov_05_1447,task-switching-replication,2021.2.3,60.0056367447084,
1,4,untimed,13,sitting,switch,congruant,dashed,square,blue,stimuli/dashed-rectangle.png,stimuli/blue-square.png,1,0,3,3,3,,,,,,,,,,,,,,,,,,,,,,,,,,,,,,,,,,,,,,,,,,,,,,,,,,,,,,,,,,,,,,,,,,,,,,,,,,,,,,,,,,,,,,,,,,,,,,,,,,,,,,,,,,,,,203.6744840145111,None,,,,,,,,,,,,,,,,,,,,,,,,,,,,,,,,,,,,,,,,,,,,,,,8003,001,13,2021_Nov_05_1447,task-switching-replication,2021.2.3,60.0056367447084,
1,5,untimed,13,sitting,noswitch,congruant,dashed,triangle,blue,stimuli/dashed-rectangle.png,stimuli/blue-triangle.png,1,0,4,4,4,,,,,,,,,,,,,,,,,,,,,,,,,,,,,,,,,,,,,,,,,,,,,,,,,,,,,,,,,,,,,,,,,,,,,,,,,,,,,,,,,,,,,,,,,,,,,,,1636141749.881172,203.87189602851868,None,204.84448194503784,None,1,1,0.478564977645874,204.84448194503784,None,,,,,205.46237587928772,None,,,,,,,,,,,,,,,,,,,,,,,,,,,,,,,,,,,,,,,,,,,,,,,8003,001,13,2021_Nov_05_1447,task-switching-replication,2021.2.3,60.0056367447084,
1,6,untimed,13,sitting,noswitch,incongruant,dashed,triangle,yellow,stimuli/dashed-rectangle.png,stimuli/yellow-triangle.png,2,0,5,5,5,,,,,,,,,,,,,,,,,,,,,,,,,,,,,,,,,,,,,,,,,,,,,,,,,,,,,,,,,,,,,,,,,,,,,,,,,,,,,,,,,,,,,,,,,,,,,,,1636141751.5215936,205.69203281402588,None,206.66443300247192,None,2,1,0.3137857913970947,206.66443300247192,None,,,,,207.10254192352295,None,,,,,,,,,,,,,,,,,,,,,,,,,,,,,,,,,,,,,,,,,,,,,,,8003,001,13,2021_Nov_05_1447,task-switching-replication,2021.2.3,60.0056367447084,
1,7,untimed,13,sitting,noswitch,incongruant,dashed,square,blue,stimuli/dashed-rectangle.png,stimuli/blue-square.png,1,0,6,6,6,,,,,,,,,,,,,,,,,,,,,,,,,,,,,,,,,,,,,,,,,,,,,,,,,,,,,,,,,,,,,,,,,,,,,,,,,,,,,,,,,,,,,,,,,,,,,,,1636141753.2841644,207.33249592781067,None,208.30439496040344,None,1,1,0.40690088272094727,208.30439496040344,None,,,,,208.86517882347107,None,,,,,,,,,,,,,,,,,,,,,,,,,,,,,,,,,,,,,,,,,,,,,,,8003,001,13,2021_Nov_05_1447,task-switching-replication,2021.2.3,60.0056367447084,
1,8,untimed,13,sitting,noswitch,incongruant,dashed,square,yellow,stimuli/dashed-rectangle.png,stimuli/yellow-square.png,2,0,7,7,7,,,,,,,,,,,,,,,,,,,,,,,,,,,,,,,,,,,,,,,,,,,,,,,,,,,,,,,,,,,,,,,,,,,,,,,,,,,,,,,,,,,,,,,,,,,,,,,1636141755.0436664,209.09510397911072,None,210.06707787513733,None,2,1,0.4081401824951172,210.06707787513733,None,,,,,210.6247889995575,None,,,,,,,,,,,,,,,,,,,,,,,,,,,,,,,,,,,,,,,,,,,,,,,8003,001,13,2021_Nov_05_1447,task-switching-replication,2021.2.3,60.0056367447084,
1,9,untimed,13,sitting,switch,incongruant,solid,triangle,yellow,stimuli/solid-rectangle.png,stimuli/yellow-triangle.png,1,0,8,8,8,0,0,0,0,,,,,,,,,,,,,,,,,,,,,,,,,,,,,,,,,,,,,,,,,,,,,,,,,,,,,,,,,,,,,,,,,,,,,,,,,,,,,,,,,,,,,,,,,,,1636141756.8029346,210.85500383377075,None,211.82766890525818,None,2,0,0.45146703720092773,211.82766890525818,None,,,,,,,212.3565572500229,213.374577999115,212.3895399570465,None,,,,,,,,,,,,,,,,,,,,,,,,,,,,,,,,,,,,,,,,,,,8003,001,13,2021_Nov_05_1447,task-switching-replication,2021.2.3,60.0056367447084,
1,9,untimed,13,sitting,switch,incongruant,solid,triangle,yellow,stimuli/solid-rectangle.png,stimuli/yellow-triangle.png,1,0,8,8,8,,,,,,,,,,,,,,,,,,,,,,,,,,,,,,,,,,,,,,,,,,,,,,,,,,,,,,,,,,,,,,,,,,,,,,,,,,,,,,,,,,,,,,,,,,,,,,,,,,,,,,,,,,,,,217.41667485237122,None,,,,,,,,,,,,,,,,,,,,,,,,,,,,,,,,,,,,,,,,,,,,,,,8003,001,13,2021_Nov_05_1447,task-switching-replication,2021.2.3,60.0056367447084,
1,10,untimed,13,sitting,noswitch,congruant,solid,triangle,blue,stimuli/solid-rectangle.png,stimuli/blue-triangle.png,1,0,9,9,9,,,,,,,,,,,,,,,,,,,,,,,,,,,,,,,,,,,,,,,,,,,,,,,,,,,,,,,,,,,,,,,,,,,,,,,,,,,,,,,,,,,,,,,,,,,,,,,1636141763.8041077,217.61455583572388,None,218.58783102035522,None,1,1,0.6333739757537842,218.58783102035522,None,,,,,219.38527703285217,None,,,,,,,,,,,,,,,,,,,,,,,,,,,,,,,,,,,,,,,,,,,,,,,8003,001,13,2021_Nov_05_1447,task-switching-replication,2021.2.3,60.0056367447084,
1,11,untimed,13,sitting,noswitch,incongruant,solid,square,yellow,stimuli/solid-rectangle.png,stimuli/yellow-square.png,2,0,10,10,10,,,,,,,,,,,,,,,,,,,,,,,,,,,,,,,,,,,,,,,,,,,,,,,,,,,,,,,,,,,,,,,,,,,,,,,,,,,,,,,,,,,,,,,,,,,,,,,1636141765.4425476,219.61528897285461,None,220.58709287643433,None,2,1,0.33221006393432617,220.58709287643433,None,,,,,221.02416682243347,None,,,,,,,,,,,,,,,,,,,,,,,,,,,,,,,,,,,,,,,,,,,,,,,8003,001,13,2021_Nov_05_1447,task-switching-replication,2021.2.3,60.0056367447084,
1,12,untimed,13,sitting,noswitch,congruant,solid,square,blue,stimuli/solid-rectangle.png,stimuli/blue-square.png,2,0,11,11,11,,,,,,,,,,,,,,,,,,,,,,,,,,,,,,,,,,,,,,,,,,,,,,,,,,,,,,,,,,,,,,,,,,,,,,,,,,,,,,,,,,,,,,,,,,,,,,,1636141767.260704,221.2537260055542,None,222.22553396224976,None,2,1,0.49264097213745117,222.22553396224976,None,,,,,222.84240889549255,None,,,,,,,,,,,,,,,,,,,,,,,,,,,,,,,,,,,,,,,,,,,,,,,8003,001,13,2021_Nov_05_1447,task-switching-replication,2021.2.3,60.0056367447084,
,,,13,,,,,,,,,,,,,,,,,,,,,,,,,,,,,,,,,,,,,,,,,,,,,,,,,,,,,,,,,,,,,,,,,,,,,,,,,,,,,,,,,,,,,,,,,,,,,,,,,,,,,,,,,,,,,,,,,,,,,,,,,,,,,,,,223.07203698158264,None,2,3.020063877105713,223.07203698158264,None,,,,,,,,,,,,,,,,,,,,,,,,,,,,,,,,,,,,,8003,001,13,2021_Nov_05_1447,task-switching-replication,2021.2.3,60.0056367447084,
,,,13,,,,,,,,,,,,,,,,,,,,,,,,,,,,,,,,,,,,,,,,,,,,,,,,,,,,,,,,,,,,,,,,,,,,,,,,,,,,,,,,,,,,,,,,,,,,,,,,,,,,,,,,,,,,,,,,,,,,,,,,,,,,,,,,,,,,,,226.2232370376587,None,2,21.948843955993652,226.2232370376587,None,,,,,,,,,,,,,,,,,,,,,,,,,,,,,,,8003,001,13,2021_Nov_05_1447,task-switching-replication,2021.2.3,60.0056367447084,
1,1,timed,13,sitting,buffer,buffer,solid,triangle,blue,stimuli/solid-rectangle.png,stimuli/blue-triangle.png,1,,,,,,,,,,,,,0,0,0,0,,,,,,,,,,,,,,,,,,,,,,,,,,,,,,,,,,,,,,,,,,,,,,,,,,,,,,,,,,,,,,,,,,,,,,,,,,,,,,,,,,,1636141794.272898,,,,,,,,,,,,,,249.8545868396759,None,,,,,,,,,,,,,,,,,248.313227891922,None,249.30226182937622,None,1,1,0.4128391742706299,249.30226182937622,None,,,,,,,,,,,,,,,,,,,,,,8003,001,13,2021_Nov_05_1447,task-switching-replication,2021.2.3,60.0056367447084,
1,2,timed,13,sitting,switch,incongruant,dashed,triangle,yellow,stimuli/dashed-rectangle.png,stimuli/yellow-triangle.png,2,,,,,,,,,,,,,0,1,1,1,,,,,0,0,0,0,,,,,,,,,,,,,,,,,,,,,,,,,,,,,,,,,,,,,,,,,,,,,,,,,,,,,,,,,,,,,,,,,,,,,,,,,,,1636141796.2793593,,,,,,,,,,251.83297836780548,252.8532419204712,251.86625385284424,None,,,,,,,,,,,,,,,,,,,250.08336091041565,None,251.07224798202515,None,1,0,0.6876029968261719,251.07224798202515,None,,,,,,,,,,,,,,,,,,,,,,8003,001,13,2021_Nov_05_1447,task-switching-replication,2021.2.3,60.0056367447084,
1,2,timed,13,sitting,switch,incongruant,dashed,triangle,yellow,stimuli/dashed-rectangle.png,stimuli/yellow-triangle.png,2,,,,,,,,,,,,,0,1,1,1,,,,,,,,,,,,,,,,,,,,,,,,,,,,,,,,,,,,,,,,,,,,,,,,,,,,,,,,,,,,,,,,,,,,,,,,,,,,,,,,,,,,,,,,,,,,,,,,,256.8610768318176,None,,,,,,,,,,,,,,,,,,,,,,,,,,,,,,,,,,,,,,,,,,,,,,,8003,001,13,2021_Nov_05_1447,task-switching-replication,2021.2.3,60.0056367447084,
1,3,timed,13,sitting,switch,incongruant,solid,triangle,blue,stimuli/solid-rectangle.png,stimuli/blue-triangle.png,1,,,,,,,,,,,,,0,2,2,2,,,,,,,,,,,,,,,,,,,,,,,,,,,,,,,,,,,,,,,,,,,,,,,,,,,,,,,,,,,,,,,,,,,,,,,,,,,,,,,,,,,1636141803.3498247,,,,,,,,,,,,,,258.93109798431396,None,,,,,,,,,,,,,,,,,257.09065103530884,None,258.0801589488983,None,1,1,0.7170588970184326,258.0801589488983,None,,,,,,,,,,,,,,,,,,,,,,8003,001,13,2021_Nov_05_1447,task-switching-replication,2021.2.3,60.0056367447084,
1,4,timed,13,sitting,switch,incongruant,dashed,square,yellow,stimuli/dashed-rectangle.png,stimuli/yellow-square.png,2,,,,,,,,,,,,,0,3,3,3,,,,,,,,,,,,,,,,,,,,,,,,,,,,,,,,,,,,,,,,,,,,,,,,,,,,,,,,,,,,,,,,,,,,,,,,,,,,,,,,,,,1636141805.596142,,,,,,,,,,,,,,261.17728090286255,None,,,,,,,,,,,,,,,,,259.1603169441223,None,260.14991998672485,None,2,1,0.8689849376678467,260.14991998672485,None,,,,,,,,,,,,,,,,,,,,,,8003,001,13,2021_Nov_05_1447,task-switching-replication,2021.2.3,60.0056367447084,
1,5,timed,13,sitting,switch,incongruant,solid,triangle,blue,stimuli/solid-rectangle.png,stimuli/blue-triangle.png,1,,,,,,,,,,,,,0,4,4,4,,,,,,,,,,,,,,,,,,,,,,,,,,,,,,,,,,,,,,,,,,,,,,,,,,,,,,,,,,,,,,,,,,,,,,,,,,,,,,,,,,,1636141807.489313,,,,,,,,,,,,,,263.07036781311035,None,,,,,,,,,,,,,,,,,261.4069938659668,None,262.39553594589233,None,1,1,0.5463569164276123,262.39553594589233,None,,,,,,,,,,,,,,,,,,,,,,8003,001,13,2021_Nov_05_1447,task-switching-replication,2021.2.3,60.0056367447084,
1,6,timed,13,sitting,switch,congruant,dashed,triangle,blue,stimuli/dashed-rectangle.png,stimuli/blue-triangle.png,1,,,,,,,,,,,,,0,5,5,5,,,,,,,,,,,,,,,,,,,,,,,,,,,,,,,,,,,,,,,,,,,,,,,,,,,,,,,,,,,,,,,,,,,,,,,,,,,,,,,,,,,1636141809.9696097,,,,,,,,,,,,,,265.5513288974762,None,,,,,,,,,,,,,,,,,263.2996509075165,None,264.28835701942444,None,1,1,1.1105029582977295,264.28835701942444,None,,,,,,,,,,,,,,,,,,,,,,8003,001,13,2021_Nov_05_1447,task-switching-replication,2021.2.3,60.0056367447084,
1,7,timed,13,sitting,noswitch,incongruant,dashed,triangle,yellow,stimuli/dashed-rectangle.png,stimuli/yellow-triangle.png,2,,,,,,,,,,,,,0,6,6,6,,,,,,,,,,,,,,,,,,,,,,,,,,,,,,,,,,,,,,,,,,,,,,,,,,,,,,,,,,,,,,,,,,,,,,,,,,,,,,,,,,,1636141811.977009,,,,,,,,,,,,,,267.5583939552307,None,,,,,,,,,,,,,,,,,265.78024101257324,None,266.7694969177246,None,2,1,0.6879599094390869,266.7694969177246,None,,,,,,,,,,,,,,,,,,,,,,8003,001,13,2021_Nov_05_1447,task-switching-replication,2021.2.3,60.0056367447084,
1,8,timed,13,sitting,switch,congruant,solid,square,blue,stimuli/solid-rectangle.png,stimuli/blue-square.png,2,,,,,,,,,,,,,0,7,7,7,,,,,,,,,,,,,,,,,,,,,,,,,,,,,,,,,,,,,,,,,,,,,,,,,,,,,,,,,,,,,,,,,,,,,,,,,,,,,,,,,,,1636141814.160483,,,,,,,,,,,,,,269.7423059940338,None,,,,,,,,,,,,,,,,,267.7873249053955,None,268.7760229110718,None,2,1,0.864048957824707,268.7760229110718,None,,,,,,,,,,,,,,,,,,,,,,8003,001,13,2021_Nov_05_1447,task-switching-replication,2021.2.3,60.0056367447084,
1,9,timed,13,sitting,noswitch,congruant,solid,square,yellow,stimuli/solid-rectangle.png,stimuli/yellow-square.png,2,,,,,,,,,,,,,0,8,8,8,0,0,0,0,,,,,,,,,,,,,,,,,,,,,,,,,,,,,,,,,,,,,,,,,,,,,,,,,,,,,,,,,,,,,,,,,,,,,,,,,,,,,,,1636141816.1675045,,,,,,,,,,,,,,,,271.72112333774567,272.73872590065,271.7533769607544,None,,,,,,,,,,,,,269.97134590148926,None,270.96000695228577,None,1,0,0.683682918548584,270.96000695228577,None,,,,,,,,,,,,,,,,,,,,,,8003,001,13,2021_Nov_05_1447,task-switching-replication,2021.2.3,60.0056367447084,
1,9,timed,13,sitting,noswitch,congruant,solid,square,yellow,stimuli/solid-rectangle.png,stimuli/yellow-square.png,2,,,,,,,,,,,,,0,8,8,8,,,,,,,,,,,,,,,,,,,,,,,,,,,,,,,,,,,,,,,,,,,,,,,,,,,,,,,,,,,,,,,,,,,,,,,,,,,,,,,,,,,,,,,,,,,,,,,,,276.75351786613464,None,,,,,,,,,,,,,,,,,,,,,,,,,,,,,,,,,,,,,,,,,,,,,,,8003,001,13,2021_Nov_05_1447,task-switching-replication,2021.2.3,60.0056367447084,
1,10,timed,13,sitting,switch,congruant,dashed,square,yellow,stimuli/dashed-rectangle.png,stimuli/yellow-square.png,2,,,,,,,,,,,,,0,9,9,9,,,,,,,,,,,,,,,,,,,,,,,,,,,,,,,,,,,,,,,,,,,,,,,,,,,,,,,,,,,,,,,,,,,,,,,,,,,,,,,,,,,1636141823.8296008,,,,,,,,,,,,,,279.41117000579834,None,,,,,,,,,,,,,,,,,276.98254203796387,None,277.97117280960083,None,2,1,1.309709072113037,277.97117280960083,None,,,,,,,,,,,,,,,,,,,,,,8003,001,13,2021_Nov_05_1447,task-switching-replication,2021.2.3,60.0056367447084,
1,11,timed,13,sitting,switch,incongruant,solid,triangle,yellow,stimuli/solid-rectangle.png,stimuli/yellow-triangle.png,1,,,,,,,,,,,,,0,10,10,10,,,,,,,,,,,,,,,,,,,,,,,,,,,,,,,,,,,,,,,,,,,,,,,,,,,,,,,,,,,,,,,,,,,,,,,,,,,,,,,,,,,1636141826.1331997,,,,,,,,,,,,,,281.7141728401184,None,,,,,,,,,,,,,,,,,279.64011096954346,None,280.6293668746948,None,1,1,0.9565820693969727,280.6293668746948,None,,,,,,,,,,,,,,,,,,,,,,8003,001,13,2021_Nov_05_1447,task-switching-replication,2021.2.3,60.0056367447084,
1,12,timed,13,sitting,noswitch,incongruant,solid,square,blue,stimuli/solid-rectangle.png,stimuli/blue-square.png,2,,,,,,,,,,,,,0,11,11,11,,,,,,,,,,,,,,,,,,,,,,,,,,,,,,,,,,,,,,,,,,,,,,,,,,,,,,,,,,,,,,,,,,,,,,,,,,,,,,,,,,,1636141827.9091735,,,,,,,,,,,,,,283.490110874176,None,,,,,,,,,,,,,,,,,281.9437828063965,None,282.9340720176697,None,2,1,0.41785383224487305,282.9340720176697,None,,,,,,,,,,,,,,,,,,,,,,8003,001,13,2021_Nov_05_1447,task-switching-replication,2021.2.3,60.0056367447084,
1,13,timed,13,sitting,switch,incongruant,dashed,triangle,blue,stimuli/dashed-rectangle.png,stimuli/blue-triangle.png,1,,,,,,,,,,,,,0,12,12,12,,,,,,,,,,,,,,,,,,,,,,,,,,,,,,,,,,,,,,,,,,,,,,,,,,,,,,,,,,,,,,,,,,,,,,,,,,,,,,,,,,,1636141829.5607703,,,,,,,,,,,,,,285.14196395874023,None,,,,,,,,,,,,,,,,,283.71978282928467,None,284.7089009284973,None,1,1,0.31505322456359863,284.7089009284973,None,,,,,,,,,,,,,,,,,,,,,,8003,001,13,2021_Nov_05_1447,task-switching-replication,2021.2.3,60.0056367447084,
1,14,timed,13,sitting,noswitch,congruant,dashed,triangle,blue,stimuli/dashed-rectangle.png,stimuli/blue-triangle.png,1,,,,,,,,,,,,,0,13,13,13,,,,,,,,,,,,,,,,,,,,,,,,,,,,,,,,,,,,,,,,,,,,,,,,,,,,,,,,,,,,,,,,,,,,,,,,,,,,,,,,,,,1636141831.214081,,,,,,,,,,,,,,286.7957479953766,None,,,,,,,,,,,,,,,,,285.3728358745575,None,286.36222791671753,None,1,1,0.303570032119751,286.36222791671753,None,,,,,,,,,,,,,,,,,,,,,,8003,001,13,2021_Nov_05_1447,task-switching-replication,2021.2.3,60.0056367447084,
1,15,timed,13,sitting,noswitch,congruant,dashed,square,blue,stimuli/dashed-rectangle.png,stimuli/blue-square.png,1,,,,,,,,,,,,,0,14,14,14,,,,,,,,,,,,,,,,,,,,,,,,,,,,,,,,,,,,,,,,,,,,,,,,,,,,,,,,,,,,,,,,,,,,,,,,,,,,,,,,,,,1636141833.0435038,,,,,,,,,,,,,,288.62533688545227,None,,,,,,,,,,,,,,,,,287.02481484413147,None,288.0138738155365,None,1,1,0.5069820880889893,288.0138738155365,None,,,,,,,,,,,,,,,,,,,,,,8003,001,13,2021_Nov_05_1447,task-switching-replication,2021.2.3,60.0056367447084,
1,16,timed,13,sitting,switch,incongruant,solid,square,yellow,stimuli/solid-rectangle.png,stimuli/yellow-square.png,2,,,,,,,,,,,,,0,15,15,15,,,,,,,,,,,,,,,,,,,,,,,,,,,,,,,,,,,,,,,,,,,,,,,,,,,,,,,,,,,,,,,,,,,,,,,,,,,,,,,,,,,1636141834.9935217,,,,,,,,,,,,,,290.57464480400085,None,,,,,,,,,,,,,,,,,288.8548958301544,None,289.8438308238983,None,2,1,0.5821900367736816,289.8438308238983,None,,,,,,,,,,,,,,,,,,,,,,8003,001,13,2021_Nov_05_1447,task-switching-replication,2021.2.3,60.0056367447084,
1,17,timed,13,sitting,switch,incongruant,dashed,square,blue,stimuli/dashed-rectangle.png,stimuli/blue-square.png,1,,,,,,,,,,,,,0,16,16,16,,,,,,,,,,,,,,,,,,,,,,,,,,,,,,,,,,,,,,,,,,,,,,,,,,,,,,,,,,,,,,,,,,,,,,,,,,,,,,,,,,,1636141836.8256018,,,,,,,,,,,,,,292.4065480232239,None,,,,,,,,,,,,,,,,,290.8042528629303,None,291.7938058376312,None,1,1,0.48392510414123535,291.7938058376312,None,,,,,,,,,,,,,,,,,,,,,,8003,001,13,2021_Nov_05_1447,task-switching-replication,2021.2.3,60.0056367447084,
1,18,timed,13,sitting,noswitch,incongruant,dashed,square,yellow,stimuli/dashed-rectangle.png,stimuli/yellow-square.png,2,,,,,,,,,,,,,0,17,17,17,,,,,,,,,,,,,,,,,,,,,,,,,,,,,,,,,,,,,,,,,,,,,,,,,,,,,,,,,,,,,,,,,,,,,,,,,,,,,,,,,,,1636141838.4192939,,,,,,,,,,,,,,294.00024485588074,None,,,,,,,,,,,,,,,,,292.63575887680054,None,293.6246600151062,None,2,1,0.24701499938964844,293.6246600151062,None,,,,,,,,,,,,,,,,,,,,,,8003,001,13,2021_Nov_05_1447,task-switching-replication,2021.2.3,60.0056367447084,
1,19,timed,13,sitting,noswitch,incongruant,dashed,square,blue,stimuli/dashed-rectangle.png,stimuli/blue-square.png,1,,,,,,,,,,,,,0,18,18,18,,,,,,,,,,,,,,,,,,,,,,,,,,,,,,,,,,,,,,,,,,,,,,,,,,,,,,,,,,,,,,,,,,,,,,,,,,,,,,,,,,,1636141840.1896286,,,,,,,,,,,,,,295.7715549468994,None,,,,,,,,,,,,,,,,,294.2296509742737,None,295.2195498943329,None,1,1,0.4374809265136719,295.2195498943329,None,,,,,,,,,,,,,,,,,,,,,,8003,001,13,2021_Nov_05_1447,task-switching-replication,2021.2.3,60.0056367447084,
1,20,timed,13,sitting,switch,incongruant,solid,square,blue,stimuli/solid-rectangle.png,stimuli/blue-square.png,2,,,,,,,,,,,,,0,19,19,19,,,,,,,,,,,,,,,,,,,,,,,,,,,,,,,,,,,,,,,,,,,,,,,,,,,,,,,,,,,,,,,,,,,,,,,,,,,,,,,,,,,1636141842.0204732,,,,,,,,,,,,,,297.60153102874756,None,,,,,,,,,,,,,,,,,296.000816822052,None,296.98972392082214,None,2,1,0.4532771110534668,296.98972392082214,None,,,,,,,,,,,,,,,,,,,,,,8003,001,13,2021_Nov_05_1447,task-switching-replication,2021.2.3,60.0056367447084,
1,21,timed,13,sitting,noswitch,incongruant,solid,triangle,yellow,stimuli/solid-rectangle.png,stimuli/yellow-triangle.png,1,,,,,,,,,,,,,0,20,20,20,,,,,,,,,,,,,,,,,,,,,,,,,,,,,,,,,,,,,,,,,,,,,,,,,,,,,,,,,,,,,,,,,,,,,,,,,,,,,,,,,,,1636141844.446171,,,,,,,,,,,,,,300.0271909236908,None,,,,,,,,,,,,,,,,,297.8304829597473,None,298.8197560310364,None,1,1,1.0829319953918457,298.8197560310364,None,,,,,,,,,,,,,,,,,,,,,,8003,001,13,2021_Nov_05_1447,task-switching-replication,2021.2.3,60.0056367447084,
1,22,timed,13,sitting,noswitch,congruant,solid,triangle,yellow,stimuli/solid-rectangle.png,stimuli/yellow-triangle.png,1,,,,,,,,,,,,,0,21,21,21,,,,,,,,,,,,,,,,,,,,,,,,,,,,,,,,,,,,,,,,,,,,,,,,,,,,,,,,,,,,,,,,,,,,,,,,,,,,,,,,,,,1636141846.1568558,,,,,,,,,,,,,,301.7386119365692,None,,,,,,,,,,,,,,,,,300.25701880455017,None,301.2458498477936,None,1,1,0.3348851203918457,301.2458498477936,None,,,,,,,,,,,,,,,,,,,,,,8003,001,13,2021_Nov_05_1447,task-switching-replication,2021.2.3,60.0056367447084,
1,23,timed,13,sitting,noswitch,incongruant,solid,square,yellow,stimuli/solid-rectangle.png,stimuli/yellow-square.png,2,,,,,,,,,,,,,0,22,22,22,,,,,,,,,,,,,,,,,,,,,,,,,,,,,,,,,,,,,,,,,,,,,,,,,,,,,,,,,,,,,,,,,,,,,,,,,,,,,,,,,,,1636141848.227397,,,,,,,,,,,,,,303.8084628582001,None,,,,,,,,,,,,,,,,,301.9674959182739,None,302.95651602745056,None,2,1,0.708259105682373,302.95651602745056,None,,,,,,,,,,,,,,,,,,,,,,8003,001,13,2021_Nov_05_1447,task-switching-replication,2021.2.3,60.0056367447084,
1,24,timed,13,sitting,switch,congruant,dashed,triangle,yellow,stimuli/dashed-rectangle.png,stimuli/yellow-triangle.png,2,,,,,,,,,,,,,0,23,23,23,,,,,,,,,,,,,,,,,,,,,,,,,,,,,,,,,,,,,,,,,,,,,,,,,,,,,,,,,,,,,,,,,,,,,,,,,,,,,,,,,,,1636141850.4719794,,,,,,,,,,,,,,306.0536949634552,None,,,,,,,,,,,,,,,,,304.0378198623657,None,305.0270719528198,None,2,1,0.8738181591033936,305.0270719528198,None,,,,,,,,,,,,,,,,,,,,,,8003,001,13,2021_Nov_05_1447,task-switching-replication,2021.2.3,60.0056367447084,
1,1,experiment,13,sitting,buffer,buffer,solid,triangle,blue,stimuli/solid-rectangle.png,stimuli/blue-triangle.png,1,,,,,,,,,,,,,,,,,,,,,,,,,0,0,0,0,0,0,0,0,0,0,0,0,,,,,,,,,306.2964618206024,None,2,2.180935859680176,306.2964618206024,None,,,,,,,,,,,,,,,,,,,,,,,,,,,,,,,,,,,,,,,,,,,,,,,,,1636141857.6935356,,,,,,,,,,,,,,313.2752079963684,None,,,,,,,,,,,,,,,,,,,,,,,,,,308.56652188301086,None,2,1.670201063156128,308.56652188301086,None,310.3358209133148,None,2,1.246981143951416,310.3358209133148,None,311.73381185531616,None,312.72286081314087,None,1,1,0.40809178352355957,312.72286081314087,None,8003,001,13,2021_Nov_05_1447,task-switching-replication,2021.2.3,60.0056367447084,
1,2,experiment,13,sitting,noswitch,congruant,solid,triangle,yellow,stimuli/solid-rectangle.png,stimuli/yellow-triangle.png,1,,,,,,,,,,,,,,,,,,,,,,,,,0,0,0,0,0,0,0,0,0,1,1,1,0,0,0,0,,,,,,,,,,,,,,,,,,,,,,,,,,,,,,,,,,,,,,,,,,,,,,,,,,,,,,,,,,,1636141859.4631805,,,,,,,,,,,,,,,,315.01679742336273,316.06891894340515,315.0490708351135,None,,,,,,,,,,,,,,,,,,,,,,,,,,,,,,,,,,313.5045909881592,None,314.49302887916565,None,2,0,0.44684386253356934,314.49302887916565,None,8003,001,13,2021_Nov_05_1447,task-switching-replication,2021.2.3,60.0056367447084,
1,2,experiment,13,sitting,noswitch,congruant,solid,triangle,yellow,stimuli/solid-rectangle.png,stimuli/yellow-triangle.png,1,,,,,,,,,,,,,,,,,,,,,,,,,0,0,0,0,0,0,0,0,0,1,1,1,,,,,,,,,,,,,,,,,,,,,,,,,,,,,,,,,,,,,,,,,,,,,,,,,,,,,,,,,,,,,,,,,,,,,,,,,,,,,320.04928183555603,None,,,,,,,,,,,,,,,,,,,,,,,,,,,,,,,,,,,,,,,,,,,,,,,8003,001,13,2021_Nov_05_1447,task-switching-replication,2021.2.3,60.0056367447084,
1,3,experiment,13,sitting,switch,incongruant,dashed,triangle,yellow,stimuli/dashed-rectangle.png,stimuli/yellow-triangle.png,2,,,,,,,,,,,,,,,,,,,,,,,,,0,0,0,0,0,0,0,0,0,2,2,2,,,,,0,0,0,0,,,,,,,,,,,,,,,,,,,,,,,,,,,,,,,,,,,,,,,,,,,,,,,,,,,,,,,1636141866.6825511,,,,,,,,,,322.236208319664,323.2881398200989,322.2685399055481,None,,,,,,,,,,,,,,,,,,,,,,,,,,,,,,,,,,,,,,,,320.2467210292816,None,321.2356798648834,None,1,0,0.8940961360931396,321.2356798648834,None,8003,001,13,2021_Nov_05_1447,task-switching-replication,2021.2.3,60.0056367447084,
1,3,experiment,13,sitting,switch,incongruant,dashed,triangle,yellow,stimuli/dashed-rectangle.png,stimuli/yellow-triangle.png,2,,,,,,,,,,,,,,,,,,,,,,,,,0,0,0,0,0,0,0,0,0,2,2,2,,,,,,,,,,,,,,,,,,,,,,,,,,,,,,,,,,,,,,,,,,,,,,,,,,,,,,,,,,,,,,,,,,,,,,,,,,,,,327.2653999328613,None,,,,,,,,,,,,,,,,,,,,,,,,,,,,,,,,,,,,,,,,,,,,,,,8003,001,13,2021_Nov_05_1447,task-switching-replication,2021.2.3,60.0056367447084,
1,4,experiment,13,sitting,noswitch,congruant,dashed,triangle,yellow,stimuli/dashed-rectangle.png,stimuli/yellow-triangle.png,2,,,,,,,,,,,,,,,,,,,,,,,,,0,0,0,0,0,0,0,0,0,3,3,3,,,,,,,,,,,,,,,,,,,,,,,,,,,,,,,,,,,,,,,,,,,,,,,,,,,,,,,,,,,,,,,1636141873.514066,,,,,,,,,,,,,,329.09631991386414,None,,,,,,,,,,,,,,,,,,,,,,,,,,,,,,,,,,,,,,327.4945168495178,None,328.4842448234558,None,2,1,0.48542094230651855,328.4842448234558,None,8003,001,13,2021_Nov_05_1447,task-switching-replication,2021.2.3,60.0056367447084,
1,5,experiment,13,sitting,noswitch,congruant,dashed,triangle,yellow,stimuli/dashed-rectangle.png,stimuli/yellow-triangle.png,2,,,,,,,,,,,,,,,,,,,,,,,,,0,0,0,0,0,0,0,0,0,4,4,4,,,,,,,,,,,,,,,,,,,,,,,,,,,,,,,,,,,,,,,,,,,,,,,,,,,,,,,,,,,,,,,1636141875.106708,,,,,,,,,,,,,,330.68852281570435,None,,,,,,,,,,,,,,,,,,,,,,,,,,,,,,,,,,,,,,329.32507586479187,None,330.31448793411255,None,2,1,0.2722470760345459,330.31448793411255,None,8003,001,13,2021_Nov_05_1447,task-switching-replication,2021.2.3,60.0056367447084,
1,6,experiment,13,sitting,noswitch,incongruant,dashed,triangle,blue,stimuli/dashed-rectangle.png,stimuli/blue-triangle.png,1,,,,,,,,,,,,,,,,,,,,,,,,,0,0,0,0,0,0,0,0,0,5,5,5,,,,,,,,,,,,,,,,,,,,,,,,,,,,,,,,,,,,,,,,,,,,,,,,,,,,,,,,,,,,,,,1636141876.7649229,,,,,,,,,,,,,,332.34593987464905,None,,,,,,,,,,,,,,,,,,,,,,,,,,,,,,,,,,,,,,330.917799949646,None,331.90703082084656,None,1,1,0.3137640953063965,331.90703082084656,None,8003,001,13,2021_Nov_05_1447,task-switching-replication,2021.2.3,60.0056367447084,
1,7,experiment,13,sitting,switch,incongruant,solid,square,blue,stimuli/solid-rectangle.png,stimuli/blue-square.png,2,,,,,,,,,,,,,,,,,,,,,,,,,0,0,0,0,0,0,0,0,0,6,6,6,0,0,0,0,,,,,,,,,,,,,,,,,,,,,,,,,,,,,,,,,,,,,,,,,,,,,,,,,,,,,,,,,,,1636141878.7711685,,,,,,,,,,,,,,,,334.32477724552155,335.3771159648895,334.35771083831787,None,,,,,,,,,,,,,,,,,,,,,,,,,,,,,,,,,,332.57505083084106,None,333.5640799999237,None,1,0,0.6564109325408936,333.5640799999237,None,8003,001,13,2021_Nov_05_1447,task-switching-replication,2021.2.3,60.0056367447084,
1,7,experiment,13,sitting,switch,incongruant,solid,square,blue,stimuli/solid-rectangle.png,stimuli/blue-square.png,2,,,,,,,,,,,,,,,,,,,,,,,,,0,0,0,0,0,0,0,0,0,6,6,6,,,,,,,,,,,,,,,,,,,,,,,,,,,,,,,,,,,,,,,,,,,,,,,,,,,,,,,,,,,,,,,,,,,,,,,,,,,,,339.38687682151794,None,,,,,,,,,,,,,,,,,,,,,,,,,,,,,,,,,,,,,,,,,,,,,,,8003,001,13,2021_Nov_05_1447,task-switching-replication,2021.2.3,60.0056367447084,
1,8,experiment,13,sitting,switch,incongruant,dashed,triangle,blue,stimuli/dashed-rectangle.png,stimuli/blue-triangle.png,1,,,,,,,,,,,,,,,,,,,,,,,,,0,0,0,0,0,0,0,0,0,7,7,7,,,,,,,,,,,,,,,,,,,,,,,,,,,,,,,,,,,,,,,,,,,,,,,,,,,,,,,,,,,,,,,1636141886.0175219,,,,,,,,,,,,,,341.59930086135864,None,,,,,,,,,,,,,,,,,,,,,,,,,,,,,,,,,,,,,,339.5835039615631,None,340.5735728740692,None,1,1,0.9167299270629883,340.5735728740692,None,8003,001,13,2021_Nov_05_1447,task-switching-replication,2021.2.3,60.0056367447084,
1,9,experiment,13,sitting,noswitch,incongruant,dashed,square,yellow,stimuli/dashed-rectangle.png,stimuli/yellow-square.png,2,,,,,,,,,,,,,,,,,,,,,,,,,0,0,0,0,0,0,0,0,0,8,8,8,,,,,,,,,,,,,,,,,,,,,,,,,,,,,,,,,,,,,,,,,,,,,,,,,,,,,,,,,,,,,,,1636141887.9079726,,,,,,,,,,,,,,343.48896384239197,None,,,,,,,,,,,,,,,,,,,,,,,,,,,,,,,,,,,,,,341.82850193977356,None,342.8177230358124,None,2,1,0.5420548915863037,342.8177230358124,None,8003,001,13,2021_Nov_05_1447,task-switching-replication,2021.2.3,60.0056367447084,
1,10,experiment,13,sitting,switch,incongruant,solid,triangle,yellow,stimuli/solid-rectangle.png,stimuli/yellow-triangle.png,1,,,,,,,,,,,,,,,,,,,,,,,,,0,0,0,0,0,0,0,0,0,9,9,9,,,,,,,,,,,,,,,,,,,,,,,,,,,,,,,,,,,,,,,,,,,,,,,,,,,,,,,,,,,,,,,1636141889.863261,,,,,,,,,,,,,,345.4443030357361,None,,,,,,,,,,,,,,,,,,,,,,,,,,,,,,,,,,,,,,343.7183449268341,None,344.70991587638855,None,1,1,0.570904016494751,344.70991587638855,None,8003,001,13,2021_Nov_05_1447,task-switching-replication,2021.2.3,60.0056367447084,
1,11,experiment,13,sitting,switch,congruant,dashed,triangle,blue,stimuli/dashed-rectangle.png,stimuli/blue-triangle.png,1,,,,,,,,,,,,,,,,,,,,,,,,,0,0,0,0,0,0,0,0,0,10,10,10,,,,,,,,,,,,,,,,,,,,,,,,,,,,,,,,,,,,,,,,,,,,,,,,,,,,,,,,,,,,,,,1636141892.4063306,,,,,,,,,,,,,,347.9881989955902,None,,,,,,,,,,,,,,,,,,,,,,,,,,,,,,,,,,,,,,345.6737368106842,None,346.6640079021454,None,1,1,1.167464017868042,346.6640079021454,None,8003,001,13,2021_Nov_05_1447,task-switching-replication,2021.2.3,60.0056367447084,
1,12,experiment,13,sitting,noswitch,incongruant,dashed,triangle,yellow,stimuli/dashed-rectangle.png,stimuli/yellow-triangle.png,2,,,,,,,,,,,,,,,,,,,,,,,,,0,0,0,0,0,0,0,0,0,11,11,11,,,,,,,,,,,,,,,,,,,,,,,,,,,,,,,,,,,,,,,,,,,,,,,,,,,,,,,,,,,,,,,1636141894.063375,,,,,,,,,,,,,,349.64452290534973,None,,,,,,,,,,,,,,,,,,,,,,,,,,,,,,,,,,,,,,348.2175509929657,None,349.2076358795166,None,2,1,0.31285715103149414,349.2076358795166,None,8003,001,13,2021_Nov_05_1447,task-switching-replication,2021.2.3,60.0056367447084,
1,13,experiment,13,sitting,noswitch,congruant,dashed,square,yellow,stimuli/dashed-rectangle.png,stimuli/yellow-square.png,2,,,,,,,,,,,,,,,,,,,,,,,,,0,0,0,0,0,0,0,0,0,12,12,12,,,,,,,,,,,,,,,,,,,,,,,,,,,,,,,,,,,,,,,,,,,,,,,,,,,,,,,,,,,,,,,1636141896.0118725,,,,,,,,,,,,,,351.5936188697815,None,,,,,,,,,,,,,,,,,,,,,,,,,,,,,,,,,,,,,,349.87398386001587,None,350.8633689880371,None,2,1,0.609281063079834,350.8633689880371,None,8003,001,13,2021_Nov_05_1447,task-switching-replication,2021.2.3,60.0056367447084,
1,14,experiment,13,sitting,noswitch,congruant,dashed,triangle,yellow,stimuli/dashed-rectangle.png,stimuli/yellow-triangle.png,2,,,,,,,,,,,,,,,,,,,,,,,,,0,0,0,0,0,0,0,0,0,13,13,13,,,,,,,,,,,,,,,,,,,,,,,,,,,,,,,,,,,,,,,,,,,,,,,,,,,,,,,,,,,,,,,1636141897.7818959,,,,,,,,,,,,,,353.36380887031555,None,,,,,,,,,,,,,,,,,,,,,,,,,,,,,,,,,,,,,,351.82246589660645,None,352.8117139339447,None,2,1,0.4448549747467041,352.8117139339447,None,8003,001,13,2021_Nov_05_1447,task-switching-replication,2021.2.3,60.0056367447084,
1,15,experiment,13,sitting,switch,incongruant,solid,triangle,yellow,stimuli/solid-rectangle.png,stimuli/yellow-triangle.png,1,,,,,,,,,,,,,,,,,,,,,,,,,0,0,0,0,0,0,0,0,0,14,14,14,,,,,,,,,,,,,,,,,,,,,,,,,,,,,,,,,,,,,,,,,,,,,,,,,,,,,,,,,,,,,,,1636141900.0865495,,,,,,,,,,,,,,355.6675329208374,None,,,,,,,,,,,,,,,,,,,,,,,,,,,,,,,,,,,,,,353.59274888038635,None,354.5825698375702,None,1,1,0.9463629722595215,354.5825698375702,None,8003,001,13,2021_Nov_05_1447,task-switching-replication,2021.2.3,60.0056367447084,
1,16,experiment,13,sitting,noswitch,congruant,solid,triangle,yellow,stimuli/solid-rectangle.png,stimuli/yellow-triangle.png,1,,,,,,,,,,,,,,,,,,,,,,,,,0,0,0,0,0,0,0,0,0,15,15,15,,,,,,,,,,,,,,,,,,,,,,,,,,,,,,,,,,,,,,,,,,,,,,,,,,,,,,,,,,,,,,,1636141901.7373111,,,,,,,,,,,,,,357.3190839290619,None,,,,,,,,,,,,,,,,,,,,,,,,,,,,,,,,,,,,,,355.89607882499695,None,356.88543486595154,None,1,1,0.28401708602905273,356.88543486595154,None,8003,001,13,2021_Nov_05_1447,task-switching-replication,2021.2.3,60.0056367447084,
1,17,experiment,13,sitting,noswitch,incongruant,solid,square,blue,stimuli/solid-rectangle.png,stimuli/blue-square.png,2,,,,,,,,,,,,,,,,,,,,,,,,,0,0,0,0,0,0,0,0,0,16,16,16,,,,,,,,,,,,,,,,,,,,,,,,,,,,,,,,,,,,,,,,,,,,,,,,,,,,,,,,,,,,,,,1636141903.3887627,,,,,,,,,,,,,,358.9703588485718,None,,,,,,,,,,,,,,,,,,,,,,,,,,,,,,,,,,,,,,357.5481469631195,None,358.53687596321106,None,2,1,0.3210928440093994,358.53687596321106,None,8003,001,13,2021_Nov_05_1447,task-switching-replication,2021.2.3,60.0056367447084,
1,18,experiment,13,sitting,switch,congruant,dashed,square,yellow,stimuli/dashed-rectangle.png,stimuli/yellow-square.png,2,,,,,,,,,,,,,,,,,,,,,,,,,0,0,0,0,0,0,0,0,0,17,17,17,,,,,0,0,0,0,,,,,,,,,,,,,,,,,,,,,,,,,,,,,,,,,,,,,,,,,,,,,,,,,,,,,,,1636141905.7508361,,,,,,,,,,361.3045023679733,362.32623195648193,361.3379969596863,None,,,,,,,,,,,,,,,,,,,,,,,,,,,,,,,,,,,,,,,,359.199579000473,None,360.1880838871002,None,1,0,1.0317671298980713,360.1880838871002,None,8003,001,13,2021_Nov_05_1447,task-switching-replication,2021.2.3,60.0056367447084,
1,18,experiment,13,sitting,switch,congruant,dashed,square,yellow,stimuli/dashed-rectangle.png,stimuli/yellow-square.png,2,,,,,,,,,,,,,,,,,,,,,,,,,0,0,0,0,0,0,0,0,0,17,17,17,,,,,,,,,,,,,,,,,,,,,,,,,,,,,,,,,,,,,,,,,,,,,,,,,,,,,,,,,,,,,,,,,,,,,,,,,,,,,366.39912581443787,None,,,,,,,,,,,,,,,,,,,,,,,,,,,,,,,,,,,,,,,,,,,,,,,8003,001,13,2021_Nov_05_1447,task-switching-replication,2021.2.3,60.0056367447084,
1,19,experiment,13,sitting,noswitch,congruant,dashed,triangle,yellow,stimuli/dashed-rectangle.png,stimuli/yellow-triangle.png,2,,,,,,,,,,,,,,,,,,,,,,,,,0,0,0,0,0,0,0,0,0,18,18,18,,,,,0,0,0,0,,,,,,,,,,,,,,,,,,,,,,,,,,,,,,,,,,,,,,,,,,,,,,,,,,,,,,,1636141913.4759593,,,,,,,,,,369.0296782255173,370.0492949485779,369.06184101104736,None,,,,,,,,,,,,,,,,,,,,,,,,,,,,,,,,,,,,,,,,366.56368494033813,None,367.553426027298,None,1,0,1.350113868713379,367.553426027298,None,8003,001,13,2021_Nov_05_1447,task-switching-replication,2021.2.3,60.0056367447084,
1,19,experiment,13,sitting,noswitch,congruant,dashed,triangle,yellow,stimuli/dashed-rectangle.png,stimuli/yellow-triangle.png,2,,,,,,,,,,,,,,,,,,,,,,,,,0,0,0,0,0,0,0,0,0,18,18,18,,,,,,,,,,,,,,,,,,,,,,,,,,,,,,,,,,,,,,,,,,,,,,,,,,,,,,,,,,,,,,,,,,,,,,,,,,,,,374.0571618080139,None,,,,,,,,,,,,,,,,,,,,,,,,,,,,,,,,,,,,,,,,,,,,,,,8003,001,13,2021_Nov_05_1447,task-switching-replication,2021.2.3,60.0056367447084,
1,20,experiment,13,sitting,switch,congruant,solid,square,yellow,stimuli/solid-rectangle.png,stimuli/yellow-square.png,2,,,,,,,,,,,,,,,,,,,,,,,,,0,0,0,0,0,0,0,0,0,19,19,19,0,0,0,0,,,,,,,,,,,,,,,,,,,,,,,,,,,,,,,,,,,,,,,,,,,,,,,,,,,,,,,,,,,1636141921.25277,,,,,,,,,,,,,,,,376.8155843257904,377.8675420284271,376.8470139503479,None,,,,,,,,,,,,,,,,,,,,,,,,,,,,,,,,,,374.2863938808441,None,375.27513003349304,None,None,0,,375.27513003349304,None,8003,001,13,2021_Nov_05_1447,task-switching-replication,2021.2.3,60.0056367447084,
1,20,experiment,13,sitting,switch,congruant,solid,square,yellow,stimuli/solid-rectangle.png,stimuli/yellow-square.png,2,,,,,,,,,,,,,,,,,,,,,,,,,0,0,0,0,0,0,0,0,0,19,19,19,,,,,,,,,,,,,,,,,,,,,,,,,,,,,,,,,,,,,,,,,,,,,,,,,,,,,,,,,,,,,,,,,,,,,,,,,,,,,381.8757929801941,None,,,,,,,,,,,,,,,,,,,,,,,,,,,,,,,,,,,,,,,,,,,,,,,8003,001,13,2021_Nov_05_1447,task-switching-replication,2021.2.3,60.0056367447084,
1,21,experiment,13,sitting,switch,congruant,dashed,square,yellow,stimuli/dashed-rectangle.png,stimuli/yellow-square.png,2,,,,,,,,,,,,,,,,,,,,,,,,,0,0,0,0,0,0,0,0,0,20,20,20,,,,,,,,,,,,,,,,,,,,,,,,,,,,,,,,,,,,,,,,,,,,,,,,,,,,,,,,,,,,,,,1636141928.9224243,,,,,,,,,,,,,,384.50434398651123,None,,,,,,,,,,,,,,,,,,,,,,,,,,,,,,,,,,,,,,382.0727798938751,None,383.0617790222168,None,2,1,1.3428068161010742,383.0617790222168,None,8003,001,13,2021_Nov_05_1447,task-switching-replication,2021.2.3,60.0056367447084,
1,22,experiment,13,sitting,switch,congruant,solid,square,blue,stimuli/solid-rectangle.png,stimuli/blue-square.png,2,,,,,,,,,,,,,,,,,,,,,,,,,0,0,0,0,0,0,0,0,0,21,21,21,,,,,,,,,,,,,,,,,,,,,,,,,,,,,,,,,,,,,,,,,,,,,,,,,,,,,,,,,,,,,,,1636141931.0497508,,,,,,,,,,,,,,386.63157200813293,None,,,,,,,,,,,,,,,,,,,,,,,,,,,,,,,,,,,,,,384.73359990119934,None,385.72379302978516,None,2,1,0.7936429977416992,385.72379302978516,None,8003,001,13,2021_Nov_05_1447,task-switching-replication,2021.2.3,60.0056367447084,
1,23,experiment,13,sitting,noswitch,incongruant,solid,triangle,yellow,stimuli/solid-rectangle.png,stimuli/yellow-triangle.png,1,,,,,,,,,,,,,,,,,,,,,,,,,0,0,0,0,0,0,0,0,0,22,22,22,,,,,,,,,,,,,,,,,,,,,,,,,,,,,,,,,,,,,,,,,,,,,,,,,,,,,,,,,,,,,,,1636141932.7059817,,,,,,,,,,,,,,388.28718400001526,None,,,,,,,,,,,,,,,,,,,,,,,,,,,,,,,,,,,,,,386.860613822937,None,387.84972286224365,None,1,1,0.30351996421813965,387.84972286224365,None,8003,001,13,2021_Nov_05_1447,task-switching-replication,2021.2.3,60.0056367447084,
1,24,experiment,13,sitting,switch,congruant,dashed,triangle,blue,stimuli/dashed-rectangle.png,stimuli/blue-triangle.png,1,,,,,,,,,,,,,,,,,,,,,,,,,0,0,0,0,0,0,0,0,0,23,23,23,,,,,,,,,,,,,,,,,,,,,,,,,,,,,,,,,,,,,,,,,,,,,,,,,,,,,,,,,,,,,,,1636141934.4753475,,,,,,,,,,,,,,390.0574119091034,None,,,,,,,,,,,,,,,,,,,,,,,,,,,,,,,,,,,,,,388.5164258480072,None,389.505215883255,None,1,1,0.4470980167388916,389.505215883255,None,8003,001,13,2021_Nov_05_1447,task-switching-replication,2021.2.3,60.0056367447084,
1,25,experiment,13,sitting,switch,congruant,solid,triangle,blue,stimuli/solid-rectangle.png,stimuli/blue-triangle.png,1,,,,,,,,,,,,,,,,,,,,,,,,,0,0,0,0,0,0,0,0,0,24,24,24,,,,,,,,,,,,,,,,,,,,,,,,,,,,,,,,,,,,,,,,,,,,,,,,,,,,,,,,,,,,,,,1636141936.660759,,,,,,,,,,,,,,392.242506980896,None,,,,,,,,,,,,,,,,,,,,,,,,,,,,,,,,,,,,,,390.286652803421,None,391.27575182914734,None,1,1,0.808488130569458,391.27575182914734,None,8003,001,13,2021_Nov_05_1447,task-switching-replication,2021.2.3,60.0056367447084,
1,26,experiment,13,sitting,switch,congruant,dashed,square,blue,stimuli/dashed-rectangle.png,stimuli/blue-square.png,1,,,,,,,,,,,,,,,,,,,,,,,,,0,0,0,0,0,0,0,0,0,25,25,25,,,,,,,,,,,,,,,,,,,,,,,,,,,,,,,,,,,,,,,,,,,,,,,,,,,,,,,,,,,,,,,1636141938.9628353,,,,,,,,,,,,,,394.5447189807892,None,,,,,,,,,,,,,,,,,,,,,,,,,,,,,,,,,,,,,,392.47167897224426,None,393.46000695228577,None,1,1,0.9662649631500244,393.46000695228577,None,8003,001,13,2021_Nov_05_1447,task-switching-replication,2021.2.3,60.0056367447084,
1,27,experiment,13,sitting,switch,incongruant,solid,square,yellow,stimuli/solid-rectangle.png,stimuli/yellow-square.png,2,,,,,,,,,,,,,,,,,,,,,,,,,0,0,0,0,0,0,0,0,0,26,26,26,,,,,,,,,,,,,,,,,,,,,,,,,,,,,,,,,,,,,,,,,,,,,,,,,,,,,,,,,,,,,,,1636141941.0932581,,,,,,,,,,,,,,396.67443895339966,None,,,,,,,,,,,,,,,,,,,,,,,,,,,,,,,,,,,,,,394.77383494377136,None,395.76268696784973,None,2,1,0.783012866973877,395.76268696784973,None,8003,001,13,2021_Nov_05_1447,task-switching-replication,2021.2.3,60.0056367447084,
1,28,experiment,13,sitting,noswitch,incongruant,solid,triangle,blue,stimuli/solid-rectangle.png,stimuli/blue-triangle.png,1,,,,,,,,,,,,,,,,,,,,,,,,,0,0,0,0,0,0,0,0,0,27,27,27,,,,,,,,,,,,,,,,,,,,,,,,,,,,,,,,,,,,,,,,,,,,,,,,,,,,,,,,,,,,,,,1636141942.8078804,,,,,,,,,,,,,,398.389212846756,None,,,,,,,,,,,,,,,,,,,,,,,,,,,,,,,,,,,,,,396.90397095680237,None,397.89348697662354,None,1,1,0.3617570400238037,397.89348697662354,None,8003,001,13,2021_Nov_05_1447,task-switching-replication,2021.2.3,60.0056367447084,
1,29,experiment,13,sitting,noswitch,congruant,solid,triangle,yellow,stimuli/solid-rectangle.png,stimuli/yellow-triangle.png,1,,,,,,,,,,,,,,,,,,,,,,,,,0,0,0,0,0,0,0,0,0,28,28,28,,,,,,,,,,,,,,,,,,,,,,,,,,,,,,,,,,,,,,,,,,,,,,,,,,,,,,,,,,,,,,,1636141944.4596438,,,,,,,,,,,,,,400.04156398773193,None,,,,,,,,,,,,,,,,,,,,,,,,,,,,,,,,,,,,,,398.6185209751129,None,399.6078128814697,None,1,1,0.3168511390686035,399.6078128814697,None,8003,001,13,2021_Nov_05_1447,task-switching-replication,2021.2.3,60.0056367447084,
1,30,experiment,13,sitting,noswitch,incongruant,solid,square,blue,stimuli/solid-rectangle.png,stimuli/blue-square.png,2,,,,,,,,,,,,,,,,,,,,,,,,,0,0,0,0,0,0,0,0,0,29,29,29,,,,,,,,,,,,,,,,,,,,,,,,,,,,,,,,,,,,,,,,,,,,,,,,,,,,,,,,,,,,,,,1636141946.1110334,,,,,,,,,,,,,,401.6921570301056,None,,,,,,,,,,,,,,,,,,,,,,,,,,,,,,,,,,,,,,400.2705399990082,None,401.2593059539795,None,2,1,0.32587099075317383,401.2593059539795,None,8003,001,13,2021_Nov_05_1447,task-switching-replication,2021.2.3,60.0056367447084,
1,31,experiment,13,sitting,switch,incongruant,dashed,square,blue,stimuli/dashed-rectangle.png,stimuli/blue-square.png,1,,,,,,,,,,,,,,,,,,,,,,,,,0,0,0,0,0,0,0,0,0,30,30,30,,,,,,,,,,,,,,,,,,,,,,,,,,,,,,,,,,,,,,,,,,,,,,,,,,,,,,,,,,,,,,,1636141948.0005517,,,,,,,,,,,,,,403.5816309452057,None,,,,,,,,,,,,,,,,,,,,,,,,,,,,,,,,,,,,,,401.92133498191833,None,402.91059398651123,None,1,1,0.5269808769226074,402.91059398651123,None,8003,001,13,2021_Nov_05_1447,task-switching-replication,2021.2.3,60.0056367447084,
1,32,experiment,13,sitting,noswitch,congruant,dashed,square,blue,stimuli/dashed-rectangle.png,stimuli/blue-square.png,1,,,,,,,,,,,,,,,,,,,,,,,,,0,0,0,0,0,0,0,0,0,31,31,31,,,,,,,,,,,,,,,,,,,,,,,,,,,,,,,,,,,,,,,,,,,,,,,,,,,,,,,,,,,,,,,1636141949.7112353,,,,,,,,,,,,,,405.2930488586426,None,,,,,,,,,,,,,,,,,,,,,,,,,,,,,,,,,,,,,,403.81092596054077,None,404.8002460002899,None,1,1,0.34208083152770996,404.8002460002899,None,8003,001,13,2021_Nov_05_1447,task-switching-replication,2021.2.3,60.0056367447084,
1,33,experiment,13,sitting,switch,incongruant,solid,square,yellow,stimuli/solid-rectangle.png,stimuli/yellow-square.png,2,,,,,,,,,,,,,,,,,,,,,,,,,0,0,0,0,0,0,0,0,0,32,32,32,,,,,,,,,,,,,,,,,,,,,,,,,,,,,,,,,,,,,,,,,,,,,,,,,,,,,,,,,,,,,,,1636141951.5416255,,,,,,,,,,,,,,407.1232509613037,None,,,,,,,,,,,,,,,,,,,,,,,,,,,,,,,,,,,,,,405.52185893058777,None,406.5117118358612,None,2,1,0.5033371448516846,406.5117118358612,None,8003,001,13,2021_Nov_05_1447,task-switching-replication,2021.2.3,60.0056367447084,
1,34,experiment,13,sitting,switch,incongruant,dashed,square,blue,stimuli/dashed-rectangle.png,stimuli/blue-square.png,1,,,,,,,,,,,,,,,,,,,,,,,,,0,0,0,0,0,0,0,0,0,33,33,33,,,,,,,,,,,,,,,,,,,,,,,,,,,,,,,,,,,,,,,,,,,,,,,,,,,,,,,,,,,,,,,1636141953.7301316,,,,,,,,,,,,,,409.31132102012634,None,,,,,,,,,,,,,,,,,,,,,,,,,,,,,,,,,,,,,,407.35229086875916,None,408.3413939476013,None,1,1,0.8211698532104492,408.3413939476013,None,8003,001,13,2021_Nov_05_1447,task-switching-replication,2021.2.3,60.0056367447084,
1,35,experiment,13,sitting,noswitch,congruant,dashed,square,blue,stimuli/dashed-rectangle.png,stimuli/blue-square.png,1,,,,,,,,,,,,,,,,,,,,,,,,,0,0,0,0,0,0,0,0,0,34,34,34,,,,,,,,,,,,,,,,,,,,,,,,,,,,,,,,,,,,,,,,,,,,,,,,,,,,,,,,,,,,,,,1636141955.619987,,,,,,,,,,,,,,411.20183992385864,None,,,,,,,,,,,,,,,,,,,,,,,,,,,,,,,,,,,,,,409.5406548976898,None,410.53015995025635,None,1,1,0.5511119365692139,410.53015995025635,None,8003,001,13,2021_Nov_05_1447,task-switching-replication,2021.2.3,60.0056367447084,
1,36,experiment,13,sitting,switch,congruant,solid,triangle,blue,stimuli/solid-rectangle.png,stimuli/blue-triangle.png,1,,,,,,,,,,,,,,,,,,,,,,,,,0,0,0,0,0,0,0,0,0,35,35,35,,,,,,,,,,,,,,,,,,,,,,,,,,,,,,,,,,,,,,,,,,,,,,,,,,,,,,,,,,,,,,,1636141957.5104878,,,,,,,,,,,,,,413.09259581565857,None,,,,,,,,,,,,,,,,,,,,,,,,,,,,,,,,,,,,,,411.43224000930786,None,412.42157101631165,None,1,1,0.5529830455780029,412.42157101631165,None,8003,001,13,2021_Nov_05_1447,task-switching-replication,2021.2.3,60.0056367447084,
1,37,experiment,13,sitting,switch,congruant,dashed,triangle,blue,stimuli/dashed-rectangle.png,stimuli/blue-triangle.png,1,,,,,,,,,,,,,,,,,,,,,,,,,0,0,0,0,0,0,0,0,0,36,36,36,,,,,,,,,,,,,,,,,,,,,,,,,,,,,,,,,,,,,,,,,,,,,,,,,,,,,,,,,,,,,,,1636141960.229803,,,,,,,,,,,,,,415.8115859031677,None,,,,,,,,,,,,,,,,,,,,,,,,,,,,,,,,,,,,,,413.3217558860779,None,414.3105080127716,None,1,1,1.3537249565124512,414.3105080127716,None,8003,001,13,2021_Nov_05_1447,task-switching-replication,2021.2.3,60.0056367447084,
1,38,experiment,13,sitting,switch,incongruant,solid,square,blue,stimuli/solid-rectangle.png,stimuli/blue-square.png,2,,,,,,,,,,,,,,,,,,,,,,,,,0,0,0,0,0,0,0,0,0,37,37,37,,,,,,,,,,,,,,,,,,,,,,,,,,,,,,,,,,,,,,,,,,,,,,,,,,,,,,,,,,,,,,,1636141962.178225,,,,,,,,,,,,,,417.76055097579956,None,,,,,,,,,,,,,,,,,,,,,,,,,,,,,,,,,,,,,,416.04086780548096,None,417.0301978588104,None,2,1,0.616081953048706,417.0301978588104,None,8003,001,13,2021_Nov_05_1447,task-switching-replication,2021.2.3,60.0056367447084,
1,39,experiment,13,sitting,noswitch,incongruant,solid,triangle,blue,stimuli/solid-rectangle.png,stimuli/blue-triangle.png,1,,,,,,,,,,,,,,,,,,,,,,,,,0,0,0,0,0,0,0,0,0,38,38,38,,,,,,,,,,,,,,,,,,,,,,,,,,,,,,,,,,,,,,,,,,,,,,,,,,,,,,,,,,,,,,,1636141963.9526463,,,,,,,,,,,,,,419.5339469909668,None,,,,,,,,,,,,,,,,,,,,,,,,,,,,,,,,,,,,,,417.9899938106537,None,418.97926902770996,None,1,1,0.3958170413970947,418.97926902770996,None,8003,001,13,2021_Nov_05_1447,task-switching-replication,2021.2.3,60.0056367447084,
1,40,experiment,13,sitting,noswitch,incongruant,solid,square,yellow,stimuli/solid-rectangle.png,stimuli/yellow-square.png,2,,,,,,,,,,,,,,,,,,,,,,,,,0,0,0,0,0,0,0,0,0,39,39,39,,,,,,,,,,,,,,,,,,,,,,,,,,,,,,,,,,,,,,,,,,,,,,,,,,,,,,,,,,,,,,,1636141965.6045787,,,,,,,,,,,,,,421.1860489845276,None,,,,,,,,,,,,,,,,,,,,,,,,,,,,,,,,,,,,,,419.7634069919586,None,420.75270199775696,None,2,1,0.3285510540008545,420.75270199775696,None,8003,001,13,2021_Nov_05_1447,task-switching-replication,2021.2.3,60.0056367447084,
1,41,experiment,13,sitting,switch,congruant,dashed,square,yellow,stimuli/dashed-rectangle.png,stimuli/yellow-square.png,2,,,,,,,,,,,,,,,,,,,,,,,,,0,0,0,0,0,0,0,0,0,40,40,40,,,,,,,,,,,,,,,,,,,,,,,,,,,,,,,,,,,,,,,,,,,,,,,,,,,,,,,,,,,,,,,1636141967.2565863,,,,,,,,,,,,,,422.83844900131226,None,,,,,,,,,,,,,,,,,,,,,,,,,,,,,,,,,,,,,,421.4150378704071,None,422.4044599533081,None,2,1,0.3019130229949951,422.4044599533081,None,8003,001,13,2021_Nov_05_1447,task-switching-replication,2021.2.3,60.0056367447084,
1,42,experiment,13,sitting,noswitch,congruant,dashed,square,yellow,stimuli/dashed-rectangle.png,stimuli/yellow-square.png,2,,,,,,,,,,,,,,,,,,,,,,,,,0,0,0,0,0,0,0,0,0,41,41,41,,,,,,,,,,,,,,,,,,,,,,,,,,,,,,,,,,,,,,,,,,,,,,,,,,,,,,,,,,,,,,,1636141968.9082093,,,,,,,,,,,,,,424.4899740219116,None,,,,,,,,,,,,,,,,,,,,,,,,,,,,,,,,,,,,,,423.06784081459045,None,424.05660796165466,None,2,1,0.29773998260498047,424.05660796165466,None,8003,001,13,2021_Nov_05_1447,task-switching-replication,2021.2.3,60.0056367447084,
1,43,experiment,13,sitting,noswitch,incongruant,dashed,square,blue,stimuli/dashed-rectangle.png,stimuli/blue-square.png,1,,,,,,,,,,,,,,,,,,,,,,,,,0,0,0,0,0,0,0,0,0,42,42,42,,,,,,,,,,,,,,,,,,,,,,,,,,,,,,,,,,,,,,,,,,,,,,,,,,,,,,,,,,,,,,,1636141970.6225393,,,,,,,,,,,,,,426.20350885391235,None,,,,,,,,,,,,,,,,,,,,,,,,,,,,,,,,,,,,,,424.71916580200195,None,425.70793294906616,None,1,1,0.34243202209472656,425.70793294906616,None,8003,001,13,2021_Nov_05_1447,task-switching-replication,2021.2.3,60.0056367447084,
1,44,experiment,13,sitting,switch,incongruant,solid,square,blue,stimuli/solid-rectangle.png,stimuli/blue-square.png,2,,,,,,,,,,,,,,,,,,,,,,,,,0,0,0,0,0,0,0,0,0,43,43,43,,,,,,,,,,,,,,,,,,,,,,,,,,,,,,,,,,,,,,,,,,,,,,,,,,,,,,,,,,,,,,,1636141972.688739,,,,,,,,,,,,,,428.270525932312,None,,,,,,,,,,,,,,,,,,,,,,,,,,,,,,,,,,,,,,426.43321681022644,None,427.4226779937744,None,2,1,0.7490079402923584,427.4226779937744,None,8003,001,13,2021_Nov_05_1447,task-switching-replication,2021.2.3,60.0056367447084,
1,45,experiment,13,sitting,switch,incongruant,dashed,triangle,blue,stimuli/dashed-rectangle.png,stimuli/blue-triangle.png,1,,,,,,,,,,,,,,,,,,,,,,,,,0,0,0,0,0,0,0,0,0,44,44,44,,,,,,,,,,,,,,,,,,,,,,,,,,,,,,,,,,,,,,,,,,,,,,,,,,,,,,,,,,,,,,,1636141974.5776188,,,,,,,,,,,,,,430.1588079929352,None,,,,,,,,,,,,,,,,,,,,,,,,,,,,,,,,,,,,,,428.4997789859772,None,429.48891496658325,None,1,1,0.5520718097686768,429.48891496658325,None,8003,001,13,2021_Nov_05_1447,task-switching-replication,2021.2.3,60.0056367447084,
1,46,experiment,13,sitting,switch,incongruant,solid,square,yellow,stimuli/solid-rectangle.png,stimuli/yellow-square.png,2,,,,,,,,,,,,,,,,,,,,,,,,,0,0,0,0,0,0,0,0,0,45,45,45,,,,,,,,,,,,,,,,,,,,,,,,,,,,,,,,,,,,,,,,,,,,,,,,,,,,,,,,,,,,,,,1636141976.5881596,,,,,,,,,,,,,,432.1691930294037,None,,,,,,,,,,,,,,,,,,,,,,,,,,,,,,,,,,,,,,430.38861203193665,None,431.37739181518555,None,2,1,0.648245096206665,431.37739181518555,None,8003,001,13,2021_Nov_05_1447,task-switching-replication,2021.2.3,60.0056367447084,
1,47,experiment,13,sitting,noswitch,congruant,solid,square,yellow,stimuli/solid-rectangle.png,stimuli/yellow-square.png,2,,,,,,,,,,,,,,,,,,,,,,,,,0,0,0,0,0,0,0,0,0,46,46,46,,,,,,,,,,,,,,,,,,,,,,,,,,,,,,,,,,,,,,,,,,,,,,,,,,,,,,,,,,,,,,,1636141978.2987142,,,,,,,,,,,,,,433.88052582740784,None,,,,,,,,,,,,,,,,,,,,,,,,,,,,,,,,,,,,,,432.39850783348083,None,433.3878619670868,None,2,1,0.39246106147766113,433.3878619670868,None,8003,001,13,2021_Nov_05_1447,task-switching-replication,2021.2.3,60.0056367447084,
1,48,experiment,13,sitting,noswitch,incongruant,solid,triangle,blue,stimuli/solid-rectangle.png,stimuli/blue-triangle.png,1,,,,,,,,,,,,,,,,,,,,,,,,,0,0,0,0,0,0,0,0,0,47,47,47,,,,,,,,,,,,,,,,,,,,,,,,,,,,,,,,,,,,,,,,,,,,,,,,,,,,,,,,,,,,,,,1636141979.8922951,,,,,,,,,,,,,,435.4738190174103,None,,,,,,,,,,,,,,,,,,,,,,,,,,,,,,,,,,,,,,434.11082792282104,None,435.0996549129486,None,1,1,0.25660204887390137,435.0996549129486,None,8003,001,13,2021_Nov_05_1447,task-switching-replication,2021.2.3,60.0056367447084,
1,49,experiment,13,sitting,noswitch,congruant,solid,triangle,blue,stimuli/solid-rectangle.png,stimuli/blue-triangle.png,1,,,,,,,,,,,,,,,,,,,,,,,,,0,0,0,0,0,0,0,0,0,48,48,48,,,,,,,,,,,,,,,,,,,,,,,,,,,,,,,,,,,,,,,,,,,,,,,,,,,,,,,,,,,,,,,1636141981.6026614,,,,,,,,,,,,,,437.1843910217285,None,,,,,,,,,,,,,,,,,,,,,,,,,,,,,,,,,,,,,,435.70325803756714,None,436.6916928291321,None,1,1,0.36430978775024414,436.6916928291321,None,8003,001,13,2021_Nov_05_1447,task-switching-replication,2021.2.3,60.0056367447084,
,,,13,,,,,,,,,,,,,,,,,,,,,,,,,,,,,,,,,,0,0,0,0,0,0,0,0,,,,,,,,,,,,,,,,,,,,,,,,,,,,,,,,,,,,,,,,,,,,,,,,,,,,,,,,,,,,,,,,,,,,,,,,,,,,,,,,,,,,,,,,,,,,,,,,,,,,,,,,,,,,,,,,,,,,,,,,,,,,,,,,,8003,001,13,2021_Nov_05_1447,task-switching-replication,2021.2.3,60.0056367447084,
2,1,experiment,13,sitting,buffer,buffer,solid,square,blue,stimuli/solid-rectangle.png,stimuli/blue-square.png,2,,,,,,,,,,,,,,,,,,,,,,,,,0,0,0,0,1,0,1,0,0,0,0,0,0,0,0,0,,,,,,,,,,,,,,,,,,,,,,,,,,,,,,,,,,,,,,,,,,,,,,,,,,,,,,,,,,,1636141988.3472545,,,,,,,,,,,,,,,,443.9008883237839,444.9196939468384,443.93395495414734,None,,,,,,,,,,,,,,,,,,,,,,437.4139938354492,None,2,2.04061222076416,437.4139938354492,None,439.54412293434143,None,2,2.3281850814819336,439.54412293434143,None,442.0321168899536,None,443.02143692970276,None,1,0,0.8007469177246094,443.02143692970276,None,8003,001,13,2021_Nov_05_1447,task-switching-replication,2021.2.3,60.0056367447084,
2,1,experiment,13,sitting,buffer,buffer,solid,square,blue,stimuli/solid-rectangle.png,stimuli/blue-square.png,2,,,,,,,,,,,,,,,,,,,,,,,,,0,0,0,0,1,0,1,0,0,0,0,0,,,,,,,,,,,,,,,,,,,,,,,,,,,,,,,,,,,,,,,,,,,,,,,,,,,,,,,,,,,,,,,,,,,,,,,,,,,,,448.93641781806946,None,,,,,,,,,,,,,,,,,,,,,,,,,,,,,,,,,,,,,,,,,,,,,,,8003,001,13,2021_Nov_05_1447,task-switching-replication,2021.2.3,60.0056367447084,
2,2,experiment,13,sitting,switch,incongruant,dashed,triangle,blue,stimuli/dashed-rectangle.png,stimuli/blue-triangle.png,1,,,,,,,,,,,,,,,,,,,,,,,,,0,0,0,0,1,0,1,0,0,1,1,1,,,,,,,,,,,,,,,,,,,,,,,,,,,,,,,,,,,,,,,,,,,,,,,,,,,,,,,,,,,,,,,1636141995.2164295,,,,,,,,,,,,,,450.7976198196411,None,,,,,,,,,,,,,,,,,,,,,,,,,,,,,,,,,,,,,,449.1334550380707,None,450.12271094322205,None,1,1,0.5113711357116699,450.12271094322205,None,8003,001,13,2021_Nov_05_1447,task-switching-replication,2021.2.3,60.0056367447084,
2,3,experiment,13,sitting,switch,congruant,solid,triangle,blue,stimuli/solid-rectangle.png,stimuli/blue-triangle.png,1,,,,,,,,,,,,,,,,,,,,,,,,,0,0,0,0,1,0,1,0,0,2,2,2,,,,,,,,,,,,,,,,,,,,,,,,,,,,,,,,,,,,,,,,,,,,,,,,,,,,,,,,,,,,,,,1636141997.0466368,,,,,,,,,,,,,,452.62850689888,None,,,,,,,,,,,,,,,,,,,,,,,,,,,,,,,,,,,,,,451.02746295928955,None,452.0169858932495,None,1,1,0.4980587959289551,452.0169858932495,None,8003,001,13,2021_Nov_05_1447,task-switching-replication,2021.2.3,60.0056367447084,
2,4,experiment,13,sitting,switch,incongruant,dashed,triangle,yellow,stimuli/dashed-rectangle.png,stimuli/yellow-triangle.png,2,,,,,,,,,,,,,,,,,,,,,,,,,0,0,0,0,1,0,1,0,0,3,3,3,,,,,,,,,,,,,,,,,,,,,,,,,,,,,,,,,,,,,,,,,,,,,,,,,,,,,,,,,,,,,,,1636141998.8182993,,,,,,,,,,,,,,454.3991549015045,None,,,,,,,,,,,,,,,,,,,,,,,,,,,,,,,,,,,,,,452.85789585113525,None,453.847275018692,None,2,1,0.4231998920440674,453.847275018692,None,8003,001,13,2021_Nov_05_1447,task-switching-replication,2021.2.3,60.0056367447084,
2,5,experiment,13,sitting,switch,congruant,solid,square,blue,stimuli/solid-rectangle.png,stimuli/blue-square.png,2,,,,,,,,,,,,,,,,,,,,,,,,,0,0,0,0,1,0,1,0,0,4,4,4,,,,,,,,,,,,,,,,,,,,,,,,,,,,,,,,,,,,,,,,,,,,,,,,,,,,,,,,,,,,,,,1636142000.588619,,,,,,,,,,,,,,456.1706738471985,None,,,,,,,,,,,,,,,,,,,,,,,,,,,,,,,,,,,,,,454.62852001190186,None,455.6182680130005,None,2,1,0.43916797637939453,455.6182680130005,None,8003,001,13,2021_Nov_05_1447,task-switching-replication,2021.2.3,60.0056367447084,
2,6,experiment,13,sitting,noswitch,incongruant,solid,triangle,blue,stimuli/solid-rectangle.png,stimuli/blue-triangle.png,1,,,,,,,,,,,,,,,,,,,,,,,,,0,0,0,0,1,0,1,0,0,5,5,5,,,,,,,,,,,,,,,,,,,,,,,,,,,,,,,,,,,,,,,,,,,,,,,,,,,,,,,,,,,,,,,1636142002.3589172,,,,,,,,,,,,,,457.94030594825745,None,,,,,,,,,,,,,,,,,,,,,,,,,,,,,,,,,,,,,,456.3998029232025,None,457.38858103752136,None,1,1,0.4349989891052246,457.38858103752136,None,8003,001,13,2021_Nov_05_1447,task-switching-replication,2021.2.3,60.0056367447084,
2,7,experiment,13,sitting,noswitch,congruant,solid,triangle,yellow,stimuli/solid-rectangle.png,stimuli/yellow-triangle.png,1,,,,,,,,,,,,,,,,,,,,,,,,,0,0,0,0,1,0,1,0,0,6,6,6,,,,,,,,,,,,,,,,,,,,,,,,,,,,,,,,,,,,,,,,,,,,,,,,,,,,,,,,,,,,,,,1636142004.0093515,,,,,,,,,,,,,,459.5912148952484,None,,,,,,,,,,,,,,,,,,,,,,,,,,,,,,,,,,,,,,458.169380903244,None,459.1577658653259,None,1,1,0.32915210723876953,459.1577658653259,None,8003,001,13,2021_Nov_05_1447,task-switching-replication,2021.2.3,60.0056367447084,
2,8,experiment,13,sitting,switch,incongruant,dashed,triangle,yellow,stimuli/dashed-rectangle.png,stimuli/yellow-triangle.png,2,,,,,,,,,,,,,,,,,,,,,,,,,0,0,0,0,1,0,1,0,0,7,7,7,,,,,,,,,,,,,,,,,,,,,,,,,,,,,,,,,,,,,,,,,,,,,,,,,,,,,,,,,,,,,,,1636142005.9568937,,,,,,,,,,,,,,461.5381410121918,None,,,,,,,,,,,,,,,,,,,,,,,,,,,,,,,,,,,,,,459.8200650215149,None,460.80893898010254,None,2,1,0.625309944152832,460.80893898010254,None,8003,001,13,2021_Nov_05_1447,task-switching-replication,2021.2.3,60.0056367447084,
2,9,experiment,13,sitting,switch,congruant,solid,square,blue,stimuli/solid-rectangle.png,stimuli/blue-square.png,2,,,,,,,,,,,,,,,,,,,,,,,,,0,0,0,0,1,0,1,0,0,8,8,8,,,,,,,,,,,,,,,,,,,,,,,,,,,,,,,,,,,,,,,,,,,,,,,,,,,,,,,,,,,,,,,1636142008.3778124,,,,,,,,,,,,,,463.9594159126282,None,,,,,,,,,,,,,,,,,,,,,,,,,,,,,,,,,,,,,,461.7672188282013,None,462.7561869621277,None,2,1,1.0728099346160889,462.7561869621277,None,8003,001,13,2021_Nov_05_1447,task-switching-replication,2021.2.3,60.0056367447084,
2,10,experiment,13,sitting,switch,congruant,dashed,square,yellow,stimuli/dashed-rectangle.png,stimuli/yellow-square.png,2,,,,,,,,,,,,,,,,,,,,,,,,,0,0,0,0,1,0,1,0,0,9,9,9,,,,,,,,,,,,,,,,,,,,,,,,,,,,,,,,,,,,,,,,,,,,,,,,,,,,,,,,,,,,,,,1636142010.1480992,,,,,,,,,,,,,,465.7301378250122,None,,,,,,,,,,,,,,,,,,,,,,,,,,,,,,,,,,,,,,464.18849086761475,None,465.17797803878784,None,2,1,0.45009803771972656,465.17797803878784,None,8003,001,13,2021_Nov_05_1447,task-switching-replication,2021.2.3,60.0056367447084,
2,11,experiment,13,sitting,noswitch,incongruant,dashed,square,blue,stimuli/dashed-rectangle.png,stimuli/blue-square.png,1,,,,,,,,,,,,,,,,,,,,,,,,,0,0,0,0,1,0,1,0,0,10,10,10,,,,,,,,,,,,,,,,,,,,,,,,,,,,,,,,,,,,,,,,,,,,,,,,,,,,,,,,,,,,,,,1636142011.9814231,,,,,,,,,,,,,,467.56250286102295,None,,,,,,,,,,,,,,,,,,,,,,,,,,,,,,,,,,,,,,465.95974683761597,None,466.948933839798,None,1,1,0.4599599838256836,466.948933839798,None,8003,001,13,2021_Nov_05_1447,task-switching-replication,2021.2.3,60.0056367447084,
2,12,experiment,13,sitting,noswitch,incongruant,dashed,triangle,yellow,stimuli/dashed-rectangle.png,stimuli/yellow-triangle.png,2,,,,,,,,,,,,,,,,,,,,,,,,,0,0,0,0,1,0,1,0,0,11,11,11,,,,,,,,,,,,,,,,,,,,,,,,,,,,,,,,,,,,,,,,,,,,,,,,,,,,,,,,,,,,,,,1636142014.1089325,,,,,,,,,,,,,,469.6899108886719,None,,,,,,,,,,,,,,,,,,,,,,,,,,,,,,,,,,,,,,467.791711807251,None,468.7806429862976,None,2,1,0.7606589794158936,468.7806429862976,None,8003,001,13,2021_Nov_05_1447,task-switching-replication,2021.2.3,60.0056367447084,
2,13,experiment,13,sitting,switch,congruant,solid,square,yellow,stimuli/solid-rectangle.png,stimuli/yellow-square.png,2,,,,,,,,,,,,,,,,,,,,,,,,,0,0,0,0,1,0,1,0,0,12,12,12,,,,,,,,,,,,,,,,,,,,,,,,,,,,,,,,,,,,,,,,,,,,,,,,,,,,,,,,,,,,,,,1636142015.879311,,,,,,,,,,,,,,471.4609868526459,None,,,,,,,,,,,,,,,,,,,,,,,,,,,,,,,,,,,,,,469.91937494277954,None,470.9087119102478,None,2,1,0.41732215881347656,470.9087119102478,None,8003,001,13,2021_Nov_05_1447,task-switching-replication,2021.2.3,60.0056367447084,
2,14,experiment,13,sitting,switch,incongruant,dashed,triangle,blue,stimuli/dashed-rectangle.png,stimuli/blue-triangle.png,1,,,,,,,,,,,,,,,,,,,,,,,,,0,0,0,0,1,0,1,0,0,13,13,13,,,,,,,,,,,,,,,,,,,,,,,,,,,,,,,,,,,,,,,,,,,,,,,,,,,,,,,,,,,,,,,1636142018.3637626,,,,,,,,,,,,,,473.9446859359741,None,,,,,,,,,,,,,,,,,,,,,,,,,,,,,,,,,,,,,,471.69051790237427,None,472.6800010204315,None,1,1,1.1260449886322021,472.6800010204315,None,8003,001,13,2021_Nov_05_1447,task-switching-replication,2021.2.3,60.0056367447084,
2,15,experiment,13,sitting,switch,congruant,solid,triangle,yellow,stimuli/solid-rectangle.png,stimuli/yellow-triangle.png,1,,,,,,,,,,,,,,,,,,,,,,,,,0,0,0,0,1,0,1,0,0,14,14,14,0,0,0,0,,,,,,,,,,,,,,,,,,,,,,,,,,,,,,,,,,,,,,,,,,,,,,,,,,,,,,,,,,,1636142020.6704175,,,,,,,,,,,,,,,,476.2241333723068,477.24169993400574,476.2562518119812,None,,,,,,,,,,,,,,,,,,,,,,,,,,,,,,,,,,474.17392086982727,None,475.162957906723,None,2,0,0.9302339553833008,475.162957906723,None,8003,001,13,2021_Nov_05_1447,task-switching-replication,2021.2.3,60.0056367447084,
2,15,experiment,13,sitting,switch,congruant,solid,triangle,yellow,stimuli/solid-rectangle.png,stimuli/yellow-triangle.png,1,,,,,,,,,,,,,,,,,,,,,,,,,0,0,0,0,1,0,1,0,0,14,14,14,,,,,,,,,,,,,,,,,,,,,,,,,,,,,,,,,,,,,,,,,,,,,,,,,,,,,,,,,,,,,,,,,,,,,,,,,,,,,481.2527220249176,None,,,,,,,,,,,,,,,,,,,,,,,,,,,,,,,,,,,,,,,,,,,,,,,8003,001,13,2021_Nov_05_1447,task-switching-replication,2021.2.3,60.0056367447084,
2,16,experiment,13,sitting,noswitch,congruant,solid,triangle,blue,stimuli/solid-rectangle.png,stimuli/blue-triangle.png,1,,,,,,,,,,,,,,,,,,,,,,,,,0,0,0,0,1,0,1,0,0,15,15,15,,,,,,,,,,,,,,,,,,,,,,,,,,,,,,,,,,,,,,,,,,,,,,,,,,,,,,,,,,,,,,,1636142028.1539507,,,,,,,,,,,,,,483.73505902290344,None,,,,,,,,,,,,,,,,,,,,,,,,,,,,,,,,,,,,,,481.4820029735565,None,482.4717228412628,None,1,1,1.1445989608764648,482.4717228412628,None,8003,001,13,2021_Nov_05_1447,task-switching-replication,2021.2.3,60.0056367447084,
2,17,experiment,13,sitting,noswitch,congruant,solid,triangle,blue,stimuli/solid-rectangle.png,stimuli/blue-triangle.png,1,,,,,,,,,,,,,,,,,,,,,,,,,0,0,0,0,1,0,1,0,0,16,16,16,,,,,,,,,,,,,,,,,,,,,,,,,,,,,,,,,,,,,,,,,,,,,,,,,,,,,,,,,,,,,,,1636142030.046535,,,,,,,,,,,,,,485.6284430027008,None,,,,,,,,,,,,,,,,,,,,,,,,,,,,,,,,,,,,,,483.96452498435974,None,484.95378589630127,None,1,1,0.5640139579772949,484.95378589630127,None,8003,001,13,2021_Nov_05_1447,task-switching-replication,2021.2.3,60.0056367447084,
2,18,experiment,13,sitting,switch,incongruant,dashed,triangle,yellow,stimuli/dashed-rectangle.png,stimuli/yellow-triangle.png,2,,,,,,,,,,,,,,,,,,,,,,,,,0,0,0,0,1,0,1,0,0,17,17,17,,,,,,,,,,,,,,,,,,,,,,,,,,,,,,,,,,,,,,,,,,,,,,,,,,,,,,,,,,,,,,,1636142031.879296,,,,,,,,,,,,,,487.46044087409973,None,,,,,,,,,,,,,,,,,,,,,,,,,,,,,,,,,,,,,,485.85774087905884,None,486.8471369743347,None,2,1,0.4890429973602295,486.8471369743347,None,8003,001,13,2021_Nov_05_1447,task-switching-replication,2021.2.3,60.0056367447084,
2,19,experiment,13,sitting,noswitch,incongruant,dashed,square,blue,stimuli/dashed-rectangle.png,stimuli/blue-square.png,1,,,,,,,,,,,,,,,,,,,,,,,,,0,0,0,0,1,0,1,0,0,18,18,18,,,,,,,,,,,,,,,,,,,,,,,,,,,,,,,,,,,,,,,,,,,,,,,,,,,,,,,,,,,,,,,1636142033.832307,,,,,,,,,,,,,,489.4133470058441,None,,,,,,,,,,,,,,,,,,,,,,,,,,,,,,,,,,,,,,487.6896708011627,None,488.67894101142883,None,1,1,0.5708141326904297,488.67894101142883,None,8003,001,13,2021_Nov_05_1447,task-switching-replication,2021.2.3,60.0056367447084,
2,20,experiment,13,sitting,switch,congruant,solid,triangle,yellow,stimuli/solid-rectangle.png,stimuli/yellow-triangle.png,1,,,,,,,,,,,,,,,,,,,,,,,,,0,0,0,0,1,0,1,0,0,19,19,19,,,,,,,,,,,,,,,,,,,,,,,,,,,,,,,,,,,,,,,,,,,,,,,,,,,,,,,,,,,,,,,1636142036.0766473,,,,,,,,,,,,,,491.6583559513092,None,,,,,,,,,,,,,,,,,,,,,,,,,,,,,,,,,,,,,,489.642728805542,None,490.6322889328003,None,1,1,0.8974950313568115,490.6322889328003,None,8003,001,13,2021_Nov_05_1447,task-switching-replication,2021.2.3,60.0056367447084,
2,21,experiment,13,sitting,switch,incongruant,dashed,triangle,yellow,stimuli/dashed-rectangle.png,stimuli/yellow-triangle.png,2,,,,,,,,,,,,,,,,,,,,,,,,,0,0,0,0,1,0,1,0,0,20,20,20,,,,,,,,,,,,,,,,,,,,,,,,,,,,,,,,,,,,,,,,,,,,,,,,,,,,,,,,,,,,,,,1636142038.0860817,,,,,,,,,,,,,,493.66726088523865,None,,,,,,,,,,,,,,,,,,,,,,,,,,,,,,,,,,,,,,491.8874399662018,None,492.8772850036621,None,2,1,0.6465029716491699,492.8772850036621,None,8003,001,13,2021_Nov_05_1447,task-switching-replication,2021.2.3,60.0056367447084,
2,22,experiment,13,sitting,noswitch,incongruant,dashed,square,blue,stimuli/dashed-rectangle.png,stimuli/blue-square.png,1,,,,,,,,,,,,,,,,,,,,,,,,,0,0,0,0,1,0,1,0,0,21,21,21,,,,,,,,,,,,,,,,,,,,,,,,,,,,,,,,,,,,,,,,,,,,,,,,,,,,,,,,,,,,,,,1636142039.7410276,,,,,,,,,,,,,,495.32215189933777,None,,,,,,,,,,,,,,,,,,,,,,,,,,,,,,,,,,,,,,493.89670300483704,None,494.88628697395325,None,1,1,0.31163597106933594,494.88628697395325,None,8003,001,13,2021_Nov_05_1447,task-switching-replication,2021.2.3,60.0056367447084,
2,23,experiment,13,sitting,noswitch,incongruant,dashed,square,yellow,stimuli/dashed-rectangle.png,stimuli/yellow-square.png,2,,,,,,,,,,,,,,,,,,,,,,,,,0,0,0,0,1,0,1,0,0,22,22,22,,,,,,,,,,,,,,,,,,,,,,,,,,,,,,,,,,,,,,,,,,,,,,,,,,,,,,,,,,,,,,,1636142041.4565244,,,,,,,,,,,,,,497.037645816803,None,,,,,,,,,,,,,,,,,,,,,,,,,,,,,,,,,,,,,,495.55206394195557,None,496.542781829834,None,2,1,0.3663978576660156,496.542781829834,None,8003,001,13,2021_Nov_05_1447,task-switching-replication,2021.2.3,60.0056367447084,
2,24,experiment,13,sitting,noswitch,congruant,dashed,triangle,yellow,stimuli/dashed-rectangle.png,stimuli/yellow-triangle.png,2,,,,,,,,,,,,,,,,,,,,,,,,,0,0,0,0,1,0,1,0,0,23,23,23,,,,,,,,,,,,,,,,,,,,,,,,,,,,,,,,,,,,,,,,,,,,,,,,,,,,,,,,,,,,,,,1636142043.3451726,,,,,,,,,,,,,,498.9270420074463,None,,,,,,,,,,,,,,,,,,,,,,,,,,,,,,,,,,,,,,497.2671649456024,None,498.2566258907318,None,2,1,0.5723791122436523,498.2566258907318,None,8003,001,13,2021_Nov_05_1447,task-switching-replication,2021.2.3,60.0056367447084,
2,25,experiment,13,sitting,switch,congruant,solid,square,blue,stimuli/solid-rectangle.png,stimuli/blue-square.png,2,,,,,,,,,,,,,,,,,,,,,,,,,0,0,0,0,1,0,1,0,0,24,24,24,0,0,0,0,,,,,,,,,,,,,,,,,,,,,,,,,,,,,,,,,,,,,,,,,,,,,,,,,,,,,,,,,,,1636142045.5935416,,,,,,,,,,,,,,,,501.14720022678375,502.1666729450226,501.17921781539917,None,,,,,,,,,,,,,,,,,,,,,,,,,,,,,,,,,,499.1569049358368,None,500.1456809043884,None,1,0,0.865239143371582,500.1456809043884,None,8003,001,13,2021_Nov_05_1447,task-switching-replication,2021.2.3,60.0056367447084,
2,25,experiment,13,sitting,switch,congruant,solid,square,blue,stimuli/solid-rectangle.png,stimuli/blue-square.png,2,,,,,,,,,,,,,,,,,,,,,,,,,0,0,0,0,1,0,1,0,0,24,24,24,,,,,,,,,,,,,,,,,,,,,,,,,,,,,,,,,,,,,,,,,,,,,,,,,,,,,,,,,,,,,,,,,,,,,,,,,,,,,506.1796169281006,None,,,,,,,,,,,,,,,,,,,,,,,,,,,,,,,,,,,,,,,,,,,,,,,8003,001,13,2021_Nov_05_1447,task-switching-replication,2021.2.3,60.0056367447084,
2,26,experiment,13,sitting,noswitch,incongruant,solid,triangle,yellow,stimuli/solid-rectangle.png,stimuli/yellow-triangle.png,1,,,,,,,,,,,,,,,,,,,,,,,,,0,0,0,0,1,0,1,0,0,25,25,25,,,,,,,,,,,,,,,,,,,,,,,,,,,,,,,,,,,,,,,,,,,,,,,,,,,,,,,,,,,,,,,1636142052.3711185,,,,,,,,,,,,,,507.9519898891449,None,,,,,,,,,,,,,,,,,,,,,,,,,,,,,,,,,,,,,,506.4081299304962,None,507.3989210128784,None,1,1,0.3999648094177246,507.3989210128784,None,8003,001,13,2021_Nov_05_1447,task-switching-replication,2021.2.3,60.0056367447084,
2,27,experiment,13,sitting,noswitch,incongruant,solid,square,blue,stimuli/solid-rectangle.png,stimuli/blue-square.png,2,,,,,,,,,,,,,,,,,,,,,,,,,0,0,0,0,1,0,1,0,0,26,26,26,,,,,,,,,,,,,,,,,,,,,,,,,,,,,,,,,,,,,,,,,,,,,,,,,,,,,,,,,,,,,,,1636142054.2625482,,,,,,,,,,,,,,509.8436529636383,None,,,,,,,,,,,,,,,,,,,,,,,,,,,,,,,,,,,,,,508.1814959049225,None,509.17115092277527,None,2,1,0.5187489986419678,509.17115092277527,None,8003,001,13,2021_Nov_05_1447,task-switching-replication,2021.2.3,60.0056367447084,
2,28,experiment,13,sitting,noswitch,congruant,solid,square,blue,stimuli/solid-rectangle.png,stimuli/blue-square.png,2,,,,,,,,,,,,,,,,,,,,,,,,,0,0,0,0,1,0,1,0,0,27,27,27,,,,,,,,,,,,,,,,,,,,,,,,,,,,,,,,,,,,,,,,,,,,,,,,,,,,,,,,,,,,,,,1636142056.0342019,,,,,,,,,,,,,,511.61601090431213,None,,,,,,,,,,,,,,,,,,,,,,,,,,,,,,,,,,,,,,510.0734899044037,None,511.0634398460388,None,2,1,0.4043760299682617,511.0634398460388,None,8003,001,13,2021_Nov_05_1447,task-switching-replication,2021.2.3,60.0056367447084,
2,29,experiment,13,sitting,switch,congruant,dashed,square,yellow,stimuli/dashed-rectangle.png,stimuli/yellow-square.png,2,,,,,,,,,,,,,,,,,,,,,,,,,0,0,0,0,1,0,1,0,0,28,28,28,,,,,0,0,0,0,,,,,,,,,,,,,,,,,,,,,,,,,,,,,,,,,,,,,,,,,,,,,,,,,,,,,,,1636142058.2800717,,,,,,,,,,513.8336812257767,514.8519489765167,513.8663189411163,None,,,,,,,,,,,,,,,,,,,,,,,,,,,,,,,,,,,,,,,,511.8455259799957,None,512.8354599475861,None,1,0,0.9076380729675293,512.8354599475861,None,8003,001,13,2021_Nov_05_1447,task-switching-replication,2021.2.3,60.0056367447084,
2,29,experiment,13,sitting,switch,congruant,dashed,square,yellow,stimuli/dashed-rectangle.png,stimuli/yellow-square.png,2,,,,,,,,,,,,,,,,,,,,,,,,,0,0,0,0,1,0,1,0,0,28,28,28,,,,,,,,,,,,,,,,,,,,,,,,,,,,,,,,,,,,,,,,,,,,,,,,,,,,,,,,,,,,,,,,,,,,,,,,,,,,,518.8622419834137,None,,,,,,,,,,,,,,,,,,,,,,,,,,,,,,,,,,,,,,,,,,,,,,,8003,001,13,2021_Nov_05_1447,task-switching-replication,2021.2.3,60.0056367447084,
2,30,experiment,13,sitting,noswitch,incongruant,dashed,triangle,blue,stimuli/dashed-rectangle.png,stimuli/blue-triangle.png,1,,,,,,,,,,,,,,,,,,,,,,,,,0,0,0,0,1,0,1,0,0,29,29,29,,,,,,,,,,,,,,,,,,,,,,,,,,,,,,,,,,,,,,,,,,,,,,,,,,,,,,,,,,,,,,,1636142064.9352498,,,,,,,,,,,,,,520.5163350105286,None,,,,,,,,,,,,,,,,,,,,,,,,,,,,,,,,,,,,,,519.0914349555969,None,520.0806038379669,None,1,1,0.277209997177124,520.0806038379669,None,8003,001,13,2021_Nov_05_1447,task-switching-replication,2021.2.3,60.0056367447084,
2,31,experiment,13,sitting,switch,congruant,solid,triangle,blue,stimuli/solid-rectangle.png,stimuli/blue-triangle.png,1,,,,,,,,,,,,,,,,,,,,,,,,,0,0,0,0,1,0,1,0,0,30,30,30,,,,,,,,,,,,,,,,,,,,,,,,,,,,,,,,,,,,,,,,,,,,,,,,,,,,,,,,,,,,,,,1636142067.1820037,,,,,,,,,,,,,,522.7638280391693,None,,,,,,,,,,,,,,,,,,,,,,,,,,,,,,,,,,,,,,520.7460010051727,None,521.7366058826447,None,1,1,0.8931300640106201,521.7366058826447,None,8003,001,13,2021_Nov_05_1447,task-switching-replication,2021.2.3,60.0056367447084,
2,32,experiment,13,sitting,noswitch,incongruant,solid,square,yellow,stimuli/solid-rectangle.png,stimuli/yellow-square.png,2,,,,,,,,,,,,,,,,,,,,,,,,,0,0,0,0,1,0,1,0,0,31,31,31,,,,,,,,,,,,,,,,,,,,,,,,,,,,,,,,,,,,,,,,,,,,,,,,,,,,,,,,,,,,,,,1636142069.0126736,,,,,,,,,,,,,,524.5945339202881,None,,,,,,,,,,,,,,,,,,,,,,,,,,,,,,,,,,,,,,522.993008852005,None,523.9824340343475,None,2,1,0.500471830368042,523.9824340343475,None,8003,001,13,2021_Nov_05_1447,task-switching-replication,2021.2.3,60.0056367447084,
2,33,experiment,13,sitting,noswitch,incongruant,solid,triangle,yellow,stimuli/solid-rectangle.png,stimuli/yellow-triangle.png,1,,,,,,,,,,,,,,,,,,,,,,,,,0,0,0,0,1,0,1,0,0,32,32,32,,,,,,,,,,,,,,,,,,,,,,,,,,,,,,,,,,,,,,,,,,,,,,,,,,,,,,,,,,,,,,,1636142070.8439696,,,,,,,,,,,,,,526.4248869419098,None,,,,,,,,,,,,,,,,,,,,,,,,,,,,,,,,,,,,,,524.8231480121613,None,525.8120028972626,None,1,1,0.45983314514160156,525.8120028972626,None,8003,001,13,2021_Nov_05_1447,task-switching-replication,2021.2.3,60.0056367447084,
2,34,experiment,13,sitting,noswitch,incongruant,solid,square,yellow,stimuli/solid-rectangle.png,stimuli/yellow-square.png,2,,,,,,,,,,,,,,,,,,,,,,,,,0,0,0,0,1,0,1,0,0,33,33,33,,,,,,,,,,,,,,,,,,,,,,,,,,,,,,,,,,,,,,,,,,,,,,,,,,,,,,,,,,,,,,,1636142072.6145031,,,,,,,,,,,,,,528.1959309577942,None,,,,,,,,,,,,,,,,,,,,,,,,,,,,,,,,,,,,,,526.6545369625092,None,527.6442270278931,None,2,1,0.43661022186279297,527.6442270278931,None,8003,001,13,2021_Nov_05_1447,task-switching-replication,2021.2.3,60.0056367447084,
2,35,experiment,13,sitting,switch,congruant,dashed,square,yellow,stimuli/dashed-rectangle.png,stimuli/yellow-square.png,2,,,,,,,,,,,,,,,,,,,,,,,,,0,0,0,0,1,0,1,0,0,34,34,34,,,,,,,,,,,,,,,,,,,,,,,,,,,,,,,,,,,,,,,,,,,,,,,,,,,,,,,,,,,,,,,1636142074.5617428,,,,,,,,,,,,,,530.1434710025787,None,,,,,,,,,,,,,,,,,,,,,,,,,,,,,,,,,,,,,,528.4251480102539,None,529.4138519763947,None,2,1,0.600010871887207,529.4138519763947,None,8003,001,13,2021_Nov_05_1447,task-switching-replication,2021.2.3,60.0056367447084,
2,36,experiment,13,sitting,switch,congruant,solid,square,blue,stimuli/solid-rectangle.png,stimuli/blue-square.png,2,,,,,,,,,,,,,,,,,,,,,,,,,0,0,0,0,1,0,1,0,0,35,35,35,,,,,,,,,,,,,,,,,,,,,,,,,,,,,,,,,,,,,,,,,,,,,,,,,,,,,,,,,,,,,,,1636142076.6278245,,,,,,,,,,,,,,532.2096428871155,None,,,,,,,,,,,,,,,,,,,,,,,,,,,,,,,,,,,,,,530.3725860118866,None,531.3615598678589,None,2,1,0.7131321430206299,531.3615598678589,None,8003,001,13,2021_Nov_05_1447,task-switching-replication,2021.2.3,60.0056367447084,
2,37,experiment,13,sitting,switch,incongruant,dashed,square,blue,stimuli/dashed-rectangle.png,stimuli/blue-square.png,1,,,,,,,,,,,,,,,,,,,,,,,,,0,0,0,0,1,0,1,0,0,36,36,36,,,,,,,,,,,,,,,,,,,,,,,,,,,,,,,,,,,,,,,,,,,,,,,,,,,,,,,,,,,,,,,1636142079.1082492,,,,,,,,,,,,,,534.6893060207367,None,,,,,,,,,,,,,,,,,,,,,,,,,,,,,,,,,,,,,,532.4386608600616,None,533.4273858070374,None,1,1,1.133134126663208,533.4273858070374,None,8003,001,13,2021_Nov_05_1447,task-switching-replication,2021.2.3,60.0056367447084,
2,38,experiment,13,sitting,switch,incongruant,solid,square,yellow,stimuli/solid-rectangle.png,stimuli/yellow-square.png,2,,,,,,,,,,,,,,,,,,,,,,,,,0,0,0,0,1,0,1,0,0,37,37,37,,,,,,,,,,,,,,,,,,,,,,,,,,,,,,,,,,,,,,,,,,,,,,,,,,,,,,,,,,,,,,,1636142081.234241,,,,,,,,,,,,,,536.8157479763031,None,,,,,,,,,,,,,,,,,,,,,,,,,,,,,,,,,,,,,,534.9187428951263,None,535.9080159664154,None,2,1,0.7921450138092041,535.9080159664154,None,8003,001,13,2021_Nov_05_1447,task-switching-replication,2021.2.3,60.0056367447084,
2,39,experiment,13,sitting,switch,congruant,dashed,square,yellow,stimuli/dashed-rectangle.png,stimuli/yellow-square.png,2,,,,,,,,,,,,,,,,,,,,,,,,,0,0,0,0,1,0,1,0,0,38,38,38,,,,,0,0,0,0,,,,,,,,,,,,,,,,,,,,,,,,,,,,,,,,,,,,,,,,,,,,,,,,,,,,,,,1636142083.8347573,,,,,,,,,,539.3884843587875,540.4115068912506,539.4207239151001,None,,,,,,,,,,,,,,,,,,,,,,,,,,,,,,,,,,,,,,,,537.0449779033661,None,538.0345568656921,None,1,0,1.2429111003875732,538.0345568656921,None,8003,001,13,2021_Nov_05_1447,task-switching-replication,2021.2.3,60.0056367447084,
2,39,experiment,13,sitting,switch,congruant,dashed,square,yellow,stimuli/dashed-rectangle.png,stimuli/yellow-square.png,2,,,,,,,,,,,,,,,,,,,,,,,,,0,0,0,0,1,0,1,0,0,38,38,38,,,,,,,,,,,,,,,,,,,,,,,,,,,,,,,,,,,,,,,,,,,,,,,,,,,,,,,,,,,,,,,,,,,,,,,,,,,,,544.422798871994,None,,,,,,,,,,,,,,,,,,,,,,,,,,,,,,,,,,,,,,,,,,,,,,,8003,001,13,2021_Nov_05_1447,task-switching-replication,2021.2.3,60.0056367447084,
2,40,experiment,13,sitting,noswitch,congruant,dashed,square,yellow,stimuli/dashed-rectangle.png,stimuli/yellow-square.png,2,,,,,,,,,,,,,,,,,,,,,,,,,0,0,0,0,1,0,1,0,0,39,39,39,,,,,,,,,,,,,,,,,,,,,,,,,,,,,,,,,,,,,,,,,,,,,,,,,,,,,,,,,,,,,,,1636142090.7575583,,,,,,,,,,,,,,546.3394618034363,None,,,,,,,,,,,,,,,,,,,,,,,,,,,,,,,,,,,,,,544.6198198795319,None,545.6096169948578,None,2,1,0.618121862411499,545.6096169948578,None,8003,001,13,2021_Nov_05_1447,task-switching-replication,2021.2.3,60.0056367447084,
2,41,experiment,13,sitting,noswitch,incongruant,dashed,square,blue,stimuli/dashed-rectangle.png,stimuli/blue-square.png,1,,,,,,,,,,,,,,,,,,,,,,,,,0,0,0,0,1,0,1,0,0,40,40,40,,,,,0,0,0,0,,,,,,,,,,,,,,,,,,,,,,,,,,,,,,,,,,,,,,,,,,,,,,,,,,,,,,,1636142093.1207514,,,,,,,,,,548.6743403673172,549.6930198669434,548.7077729701996,None,,,,,,,,,,,,,,,,,,,,,,,,,,,,,,,,,,,,,,,,546.5687489509583,None,547.5578138828278,None,2,0,0.9968240261077881,547.5578138828278,None,8003,001,13,2021_Nov_05_1447,task-switching-replication,2021.2.3,60.0056367447084,
2,41,experiment,13,sitting,noswitch,incongruant,dashed,square,blue,stimuli/dashed-rectangle.png,stimuli/blue-square.png,1,,,,,,,,,,,,,,,,,,,,,,,,,0,0,0,0,1,0,1,0,0,40,40,40,,,,,,,,,,,,,,,,,,,,,,,,,,,,,,,,,,,,,,,,,,,,,,,,,,,,,,,,,,,,,,,,,,,,,,,,,,,,,553.7029428482056,None,,,,,,,,,,,,,,,,,,,,,,,,,,,,,,,,,,,,,,,,,,,,,,,8003,001,13,2021_Nov_05_1447,task-switching-replication,2021.2.3,60.0056367447084,
2,42,experiment,13,sitting,noswitch,congruant,dashed,triangle,blue,stimuli/dashed-rectangle.png,stimuli/blue-triangle.png,1,,,,,,,,,,,,,,,,,,,,,,,,,0,0,0,0,1,0,1,0,0,41,41,41,,,,,,,,,,,,,,,,,,,,,,,,,,,,,,,,,,,,,,,,,,,,,,,,,,,,,,,,,,,,,,,1636142100.48258,,,,,,,,,,,,,,556.0638649463654,None,,,,,,,,,,,,,,,,,,,,,,,,,,,,,,,,,,,,,,553.9319298267365,None,554.9203269481659,None,1,1,1.0278680324554443,554.9203269481659,None,8003,001,13,2021_Nov_05_1447,task-switching-replication,2021.2.3,60.0056367447084,
2,43,experiment,13,sitting,noswitch,congruant,dashed,square,blue,stimuli/dashed-rectangle.png,stimuli/blue-square.png,1,,,,,,,,,,,,,,,,,,,,,,,,,0,0,0,0,1,0,1,0,0,42,42,42,,,,,,,,,,,,,,,,,,,,,,,,,,,,,,,,,,,,,,,,,,,,,,,,,,,,,,,,,,,,,,,1636142102.136859,,,,,,,,,,,,,,557.7187368869781,None,,,,,,,,,,,,,,,,,,,,,,,,,,,,,,,,,,,,,,556.2938539981842,None,557.2844610214233,None,1,1,0.33301687240600586,557.2844610214233,None,8003,001,13,2021_Nov_05_1447,task-switching-replication,2021.2.3,60.0056367447084,
2,44,experiment,13,sitting,switch,incongruant,solid,square,yellow,stimuli/solid-rectangle.png,stimuli/yellow-square.png,2,,,,,,,,,,,,,,,,,,,,,,,,,0,0,0,0,1,0,1,0,0,43,43,43,,,,,,,,,,,,,,,,,,,,,,,,,,,,,,,,,,,,,,,,,,,,,,,,,,,,,,,,,,,,,,,1636142104.0880315,,,,,,,,,,,,,,559.6690199375153,None,,,,,,,,,,,,,,,,,,,,,,,,,,,,,,,,,,,,,,557.9478588104248,None,558.9373819828033,None,2,1,0.602510929107666,558.9373819828033,None,8003,001,13,2021_Nov_05_1447,task-switching-replication,2021.2.3,60.0056367447084,
2,45,experiment,13,sitting,noswitch,incongruant,solid,triangle,blue,stimuli/solid-rectangle.png,stimuli/blue-triangle.png,1,,,,,,,,,,,,,,,,,,,,,,,,,0,0,0,0,1,0,1,0,0,44,44,44,,,,,,,,,,,,,,,,,,,,,,,,,,,,,,,,,,,,,,,,,,,,,,,,,,,,,,,,,,,,,,,1636142105.6829245,,,,,,,,,,,,,,561.2638728618622,None,,,,,,,,,,,,,,,,,,,,,,,,,,,,,,,,,,,,,,559.8983659744263,None,560.8885998725891,None,1,1,0.25183796882629395,560.8885998725891,None,8003,001,13,2021_Nov_05_1447,task-switching-replication,2021.2.3,60.0056367447084,
2,46,experiment,13,sitting,switch,congruant,dashed,triangle,blue,stimuli/dashed-rectangle.png,stimuli/blue-triangle.png,1,,,,,,,,,,,,,,,,,,,,,,,,,0,0,0,0,1,0,1,0,0,45,45,45,,,,,,,,,,,,,,,,,,,,,,,,,,,,,,,,,,,,,,,,,,,,,,,,,,,,,,,,,,,,,,,1636142107.335465,,,,,,,,,,,,,,562.9171698093414,None,,,,,,,,,,,,,,,,,,,,,,,,,,,,,,,,,,,,,,561.4935038089752,None,562.4833829402924,None,1,1,0.29617786407470703,562.4833829402924,None,8003,001,13,2021_Nov_05_1447,task-switching-replication,2021.2.3,60.0056367447084,
2,47,experiment,13,sitting,noswitch,congruant,dashed,triangle,blue,stimuli/dashed-rectangle.png,stimuli/blue-triangle.png,1,,,,,,,,,,,,,,,,,,,,,,,,,0,0,0,0,1,0,1,0,0,46,46,46,,,,,,,,,,,,,,,,,,,,,,,,,,,,,,,,,,,,,,,,,,,,,,,,,,,,,,,,,,,,,,,1636142108.988507,,,,,,,,,,,,,,564.5701608657837,None,,,,,,,,,,,,,,,,,,,,,,,,,,,,,,,,,,,,,,563.1464598178864,None,564.1365969181061,None,1,1,0.30690908432006836,564.1365969181061,None,8003,001,13,2021_Nov_05_1447,task-switching-replication,2021.2.3,60.0056367447084,
2,48,experiment,13,sitting,switch,congruant,solid,triangle,yellow,stimuli/solid-rectangle.png,stimuli/yellow-triangle.png,1,,,,,,,,,,,,,,,,,,,,,,,,,0,0,0,0,1,0,1,0,0,47,47,47,0,0,0,0,,,,,,,,,,,,,,,,,,,,,,,,,,,,,,,,,,,,,,,,,,,,,,,,,,,,,,,,,,,1636142111.4127953,,,,,,,,,,,,,,,,566.9663223028183,567.9842259883881,566.9986798763275,None,,,,,,,,,,,,,,,,,,,,,,,,,,,,,,,,,,564.799479007721,None,565.7898688316345,None,2,0,1.0998950004577637,565.7898688316345,None,8003,001,13,2021_Nov_05_1447,task-switching-replication,2021.2.3,60.0056367447084,
2,48,experiment,13,sitting,switch,congruant,solid,triangle,yellow,stimuli/solid-rectangle.png,stimuli/yellow-triangle.png,1,,,,,,,,,,,,,,,,,,,,,,,,,0,0,0,0,1,0,1,0,0,47,47,47,,,,,,,,,,,,,,,,,,,,,,,,,,,,,,,,,,,,,,,,,,,,,,,,,,,,,,,,,,,,,,,,,,,,,,,,,,,,,571.9951598644257,None,,,,,,,,,,,,,,,,,,,,,,,,,,,,,,,,,,,,,,,,,,,,,,,8003,001,13,2021_Nov_05_1447,task-switching-replication,2021.2.3,60.0056367447084,
2,49,experiment,13,sitting,noswitch,incongruant,solid,square,yellow,stimuli/solid-rectangle.png,stimuli/yellow-square.png,2,,,,,,,,,,,,,,,,,,,,,,,,,0,0,0,0,1,0,1,0,0,48,48,48,,,,,,,,,,,,,,,,,,,,,,,,,,,,,,,,,,,,,,,,,,,,,,,,,,,,,,,,,,,,,,,1636142118.4211977,,,,,,,,,,,,,,574.0029149055481,None,,,,,,,,,,,,,,,,,,,,,,,,,,,,,,,,,,,,,,572.224399805069,None,573.2137579917908,None,2,1,0.6639328002929688,573.2137579917908,None,8003,001,13,2021_Nov_05_1447,task-switching-replication,2021.2.3,60.0056367447084,
,,,13,,,,,,,,,,,,,,,,,,,,,,,,,,,,,,,,,,0,0,0,0,1,0,1,0,,,,,,,,,,,,,,,,,,,,,,,,,,,,,,,,,,,,,,,,,,,,,,,,,,,,,,,,,,,,,,,,,,,,,,,,,,,,,,,,,,,,,,,,,,,,,,,,,,,,,,,,,,,,,,,,,,,,,,,,,,,,,,,,,8003,001,13,2021_Nov_05_1447,task-switching-replication,2021.2.3,60.0056367447084,
3,1,experiment,13,sitting,buffer,buffer,dashed,triangle,yellow,stimuli/dashed-rectangle.png,stimuli/yellow-triangle.png,2,,,,,,,,,,,,,,,,,,,,,,,,,0,0,0,0,2,0,2,0,0,0,0,0,,,,,0,0,0,0,,,,,,,,,,,,,,,,,,,,,,,,,,,,,,,,,,,,,,,,,,,,,,,,,,,,,,,1636142123.0430503,,,,,,,,,,578.5967544317245,579.6149408817291,578.6298429965973,None,,,,,,,,,,,,,,,,,,,,,,,,,,,,574.2327659130096,None,2,1.1817059516906738,574.2327659130096,None,575.5147528648376,None,2,1.0206878185272217,575.5147528648376,None,576.6613969802856,None,577.652783870697,None,1,0,0.8278241157531738,577.652783870697,None,8003,001,13,2021_Nov_05_1447,task-switching-replication,2021.2.3,60.0056367447084,
3,1,experiment,13,sitting,buffer,buffer,dashed,triangle,yellow,stimuli/dashed-rectangle.png,stimuli/yellow-triangle.png,2,,,,,,,,,,,,,,,,,,,,,,,,,0,0,0,0,2,0,2,0,0,0,0,0,,,,,,,,,,,,,,,,,,,,,,,,,,,,,,,,,,,,,,,,,,,,,,,,,,,,,,,,,,,,,,,,,,,,,,,,,,,,,583.6286778450012,None,,,,,,,,,,,,,,,,,,,,,,,,,,,,,,,,,,,,,,,,,,,,,,,8003,001,13,2021_Nov_05_1447,task-switching-replication,2021.2.3,60.0056367447084,
3,2,experiment,13,sitting,switch,incongruant,solid,triangle,blue,stimuli/solid-rectangle.png,stimuli/blue-triangle.png,1,,,,,,,,,,,,,,,,,,,,,,,,,0,0,0,0,2,0,2,0,0,1,1,1,,,,,,,,,,,,,,,,,,,,,,,,,,,,,,,,,,,,,,,,,,,,,,,,,,,,,,,,,,,,,,,1636142130.2972476,,,,,,,,,,,,,,585.8782858848572,None,,,,,,,,,,,,,,,,,,,,,,,,,,,,,,,,,,,,,,583.8580968379974,None,584.8478150367737,None,1,1,0.8867588043212891,584.8478150367737,None,8003,001,13,2021_Nov_05_1447,task-switching-replication,2021.2.3,60.0056367447084,
3,3,experiment,13,sitting,switch,incongruant,dashed,square,yellow,stimuli/dashed-rectangle.png,stimuli/yellow-square.png,2,,,,,,,,,,,,,,,,,,,,,,,,,0,0,0,0,2,0,2,0,0,2,2,2,,,,,,,,,,,,,,,,,,,,,,,,,,,,,,,,,,,,,,,,,,,,,,,,,,,,,,,,,,,,,,,1636142132.3080077,,,,,,,,,,,,,,587.889016866684,None,,,,,,,,,,,,,,,,,,,,,,,,,,,,,,,,,,,,,,586.1079888343811,None,587.0974409580231,None,2,1,0.633065938949585,587.0974409580231,None,8003,001,13,2021_Nov_05_1447,task-switching-replication,2021.2.3,60.0056367447084,
3,4,experiment,13,sitting,noswitch,incongruant,dashed,triangle,blue,stimuli/dashed-rectangle.png,stimuli/blue-triangle.png,1,,,,,,,,,,,,,,,,,,,,,,,,,0,0,0,0,2,0,2,0,0,3,3,3,,,,,,,,,,,,,,,,,,,,,,,,,,,,,,,,,,,,,,,,,,,,,,,,,,,,,,,,,,,,,,,1636142133.964132,,,,,,,,,,,,,,589.5451810359955,None,,,,,,,,,,,,,,,,,,,,,,,,,,,,,,,,,,,,,,588.1187779903412,None,589.1084949970245,None,1,1,0.2981288433074951,589.1084949970245,None,8003,001,13,2021_Nov_05_1447,task-switching-replication,2021.2.3,60.0056367447084,
3,5,experiment,13,sitting,noswitch,congruant,dashed,triangle,blue,stimuli/dashed-rectangle.png,stimuli/blue-triangle.png,1,,,,,,,,,,,,,,,,,,,,,,,,,0,0,0,0,2,0,2,0,0,4,4,4,,,,,,,,,,,,,,,,,,,,,,,,,,,,,,,,,,,,,,,,,,,,,,,,,,,,,,,,,,,,,,,1636142135.7350872,,,,,,,,,,,,,,591.3170230388641,None,,,,,,,,,,,,,,,,,,,,,,,,,,,,,,,,,,,,,,589.7748498916626,None,590.7647008895874,None,1,1,0.43867015838623047,590.7647008895874,None,8003,001,13,2021_Nov_05_1447,task-switching-replication,2021.2.3,60.0056367447084,
3,6,experiment,13,sitting,noswitch,incongruant,dashed,square,yellow,stimuli/dashed-rectangle.png,stimuli/yellow-square.png,2,,,,,,,,,,,,,,,,,,,,,,,,,0,0,0,0,2,0,2,0,0,5,5,5,,,,,,,,,,,,,,,,,,,,,,,,,,,,,,,,,,,,,,,,,,,,,,,,,,,,,,,,,,,,,,,1636142137.5103126,,,,,,,,,,,,,,593.0913050174713,None,,,,,,,,,,,,,,,,,,,,,,,,,,,,,,,,,,,,,,591.5464060306549,None,592.5367929935455,None,2,1,0.42568182945251465,592.5367929935455,None,8003,001,13,2021_Nov_05_1447,task-switching-replication,2021.2.3,60.0056367447084,
3,7,experiment,13,sitting,noswitch,congruant,dashed,square,yellow,stimuli/dashed-rectangle.png,stimuli/yellow-square.png,2,,,,,,,,,,,,,,,,,,,,,,,,,0,0,0,0,2,0,2,0,0,6,6,6,,,,,,,,,,,,,,,,,,,,,,,,,,,,,,,,,,,,,,,,,,,,,,,,,,,,,,,,,,,,,,,1636142139.1627862,,,,,,,,,,,,,,594.7445838451385,None,,,,,,,,,,,,,,,,,,,,,,,,,,,,,,,,,,,,,,593.3216199874878,None,594.3107650279999,None,2,1,0.2946498394012451,594.3107650279999,None,8003,001,13,2021_Nov_05_1447,task-switching-replication,2021.2.3,60.0056367447084,
3,8,experiment,13,sitting,switch,congruant,solid,square,yellow,stimuli/solid-rectangle.png,stimuli/yellow-square.png,2,,,,,,,,,,,,,,,,,,,,,,,,,0,0,0,0,2,0,2,0,0,7,7,7,,,,,,,,,,,,,,,,,,,,,,,,,,,,,,,,,,,,,,,,,,,,,,,,,,,,,,,,,,,,,,,1636142140.9931774,,,,,,,,,,,,,,596.5749938488007,None,,,,,,,,,,,,,,,,,,,,,,,,,,,,,,,,,,,,,,594.9739379882812,None,595.9633119106293,None,2,1,0.458280086517334,595.9633119106293,None,8003,001,13,2021_Nov_05_1447,task-switching-replication,2021.2.3,60.0056367447084,
3,9,experiment,13,sitting,switch,incongruant,dashed,triangle,blue,stimuli/dashed-rectangle.png,stimuli/blue-triangle.png,1,,,,,,,,,,,,,,,,,,,,,,,,,0,0,0,0,2,0,2,0,0,8,8,8,,,,,,,,,,,,,,,,,,,,,,,,,,,,,,,,,,,,,,,,,,,,,,,,,,,,,,,,,,,,,,,1636142142.6462514,,,,,,,,,,,,,,598.2274129390717,None,,,,,,,,,,,,,,,,,,,,,,,,,,,,,,,,,,,,,,596.8043179512024,None,597.793830871582,None,1,1,0.29943394660949707,597.793830871582,None,8003,001,13,2021_Nov_05_1447,task-switching-replication,2021.2.3,60.0056367447084,
3,10,experiment,13,sitting,switch,congruant,solid,triangle,blue,stimuli/solid-rectangle.png,stimuli/blue-triangle.png,1,,,,,,,,,,,,,,,,,,,,,,,,,0,0,0,0,2,0,2,0,0,9,9,9,,,,,,,,,,,,,,,,,,,,,,,,,,,,,,,,,,,,,,,,,,,,,,,,,,,,,,,,,,,,,,,1636142144.5359592,,,,,,,,,,,,,,600.1176798343658,None,,,,,,,,,,,,,,,,,,,,,,,,,,,,,,,,,,,,,,598.457065820694,None,599.4470458030701,None,1,1,0.521345853805542,599.4470458030701,None,8003,001,13,2021_Nov_05_1447,task-switching-replication,2021.2.3,60.0056367447084,
3,11,experiment,13,sitting,noswitch,incongruant,solid,square,blue,stimuli/solid-rectangle.png,stimuli/blue-square.png,2,,,,,,,,,,,,,,,,,,,,,,,,,0,0,0,0,2,0,2,0,0,10,10,10,,,,,,,,,,,,,,,,,,,,,,,,,,,,,,,,,,,,,,,,,,,,,,,,,,,,,,,,,,,,,,,1636142146.3678105,,,,,,,,,,,,,,601.9489328861237,None,,,,,,,,,,,,,,,,,,,,,,,,,,,,,,,,,,,,,,600.3468549251556,None,601.3348000049591,None,2,1,0.45577502250671387,601.3348000049591,None,8003,001,13,2021_Nov_05_1447,task-switching-replication,2021.2.3,60.0056367447084,
3,12,experiment,13,sitting,noswitch,congruant,solid,square,yellow,stimuli/solid-rectangle.png,stimuli/yellow-square.png,2,,,,,,,,,,,,,,,,,,,,,,,,,0,0,0,0,2,0,2,0,0,11,11,11,,,,,,,,,,,,,,,,,,,,,,,,,,,,,,,,,,,,,,,,,,,,,,,,,,,,,,,,,,,,,,,1636142148.3165767,,,,,,,,,,,,,,603.898444890976,None,,,,,,,,,,,,,,,,,,,,,,,,,,,,,,,,,,,,,,602.1784768104553,None,603.1683888435364,None,2,1,0.6150751113891602,603.1683888435364,None,8003,001,13,2021_Nov_05_1447,task-switching-replication,2021.2.3,60.0056367447084,
3,13,experiment,13,sitting,noswitch,congruant,solid,square,yellow,stimuli/solid-rectangle.png,stimuli/yellow-square.png,2,,,,,,,,,,,,,,,,,,,,,,,,,0,0,0,0,2,0,2,0,0,12,12,12,,,,,,,,,,,,,,,,,,,,,,,,,,,,,,,,,,,,,,,,,,,,,,,,,,,,,,,,,,,,,,,1636142149.97053,,,,,,,,,,,,,,605.5523428916931,None,,,,,,,,,,,,,,,,,,,,,,,,,,,,,,,,,,,,,,604.1280519962311,None,605.1187670230865,None,2,1,0.32659101486206055,605.1187670230865,None,8003,001,13,2021_Nov_05_1447,task-switching-replication,2021.2.3,60.0056367447084,
3,14,experiment,13,sitting,switch,incongruant,dashed,triangle,blue,stimuli/dashed-rectangle.png,stimuli/blue-triangle.png,1,,,,,,,,,,,,,,,,,,,,,,,,,0,0,0,0,2,0,2,0,0,13,13,13,,,,,,,,,,,,,,,,,,,,,,,,,,,,,,,,,,,,,,,,,,,,,,,,,,,,,,,,,,,,,,,1636142151.8599684,,,,,,,,,,,,,,607.4414598941803,None,,,,,,,,,,,,,,,,,,,,,,,,,,,,,,,,,,,,,,605.7822120189667,None,606.7710719108582,None,1,1,0.553725004196167,606.7710719108582,None,8003,001,13,2021_Nov_05_1447,task-switching-replication,2021.2.3,60.0056367447084,
3,15,experiment,13,sitting,switch,incongruant,solid,square,yellow,stimuli/solid-rectangle.png,stimuli/yellow-square.png,2,,,,,,,,,,,,,,,,,,,,,,,,,0,0,0,0,2,0,2,0,0,14,14,14,,,,,,,,,,,,,,,,,,,,,,,,,,,,,,,,,,,,,,,,,,,,,,,,,,,,,,,,,,,,,,,1636142153.8100529,,,,,,,,,,,,,,609.3910999298096,None,,,,,,,,,,,,,,,,,,,,,,,,,,,,,,,,,,,,,,607.670816898346,None,608.6602199077606,None,2,1,0.602025032043457,608.6602199077606,None,8003,001,13,2021_Nov_05_1447,task-switching-replication,2021.2.3,60.0056367447084,
3,16,experiment,13,sitting,noswitch,incongruant,solid,triangle,yellow,stimuli/solid-rectangle.png,stimuli/yellow-triangle.png,1,,,,,,,,,,,,,,,,,,,,,,,,,0,0,0,0,2,0,2,0,0,15,15,15,,,,,,,,,,,,,,,,,,,,,,,,,,,,,,,,,,,,,,,,,,,,,,,,,,,,,,,,,,,,,,,1636142155.7585323,,,,,,,,,,,,,,611.3396849632263,None,,,,,,,,,,,,,,,,,,,,,,,,,,,,,,,,,,,,,,609.6200850009918,None,610.6097509860992,None,1,1,0.6007430553436279,610.6097509860992,None,8003,001,13,2021_Nov_05_1447,task-switching-replication,2021.2.3,60.0056367447084,
3,17,experiment,13,sitting,switch,congruant,dashed,triangle,blue,stimuli/dashed-rectangle.png,stimuli/blue-triangle.png,1,,,,,,,,,,,,,,,,,,,,,,,,,0,0,0,0,2,0,2,0,0,16,16,16,,,,,,,,,,,,,,,,,,,,,,,,,,,,,,,,,,,,,,,,,,,,,,,,,,,,,,,,,,,,,,,1636142157.5883784,,,,,,,,,,,,,,613.170166015625,None,,,,,,,,,,,,,,,,,,,,,,,,,,,,,,,,,,,,,,611.5699899196625,None,612.5589859485626,None,1,1,0.5022158622741699,612.5589859485626,None,8003,001,13,2021_Nov_05_1447,task-switching-replication,2021.2.3,60.0056367447084,
3,18,experiment,13,sitting,switch,congruant,solid,triangle,blue,stimuli/solid-rectangle.png,stimuli/blue-triangle.png,1,,,,,,,,,,,,,,,,,,,,,,,,,0,0,0,0,2,0,2,0,0,17,17,17,,,,,,,,,,,,,,,,,,,,,,,,,,,,,,,,,,,,,,,,,,,,,,,,,,,,,,,,,,,,,,,1636142159.7734187,,,,,,,,,,,,,,615.3551058769226,None,,,,,,,,,,,,,,,,,,,,,,,,,,,,,,,,,,,,,,613.3993818759918,None,614.3880670070648,None,1,1,0.8321449756622314,614.3880670070648,None,8003,001,13,2021_Nov_05_1447,task-switching-replication,2021.2.3,60.0056367447084,
3,19,experiment,13,sitting,noswitch,incongruant,solid,square,yellow,stimuli/solid-rectangle.png,stimuli/yellow-square.png,2,,,,,,,,,,,,,,,,,,,,,,,,,0,0,0,0,2,0,2,0,0,18,18,18,,,,,,,,,,,,,,,,,,,,,,,,,,,,,,,,,,,,,,,,,,,,,,,,,,,,,,,,,,,,,,,1636142161.3659108,,,,,,,,,,,,,,616.9472668170929,None,,,,,,,,,,,,,,,,,,,,,,,,,,,,,,,,,,,,,,615.5847599506378,None,616.5733458995819,None,2,1,0.27202391624450684,616.5733458995819,None,8003,001,13,2021_Nov_05_1447,task-switching-replication,2021.2.3,60.0056367447084,
3,20,experiment,13,sitting,noswitch,incongruant,solid,triangle,blue,stimuli/solid-rectangle.png,stimuli/blue-triangle.png,1,,,,,,,,,,,,,,,,,,,,,,,,,0,0,0,0,2,0,2,0,0,19,19,19,,,,,,,,,,,,,,,,,,,,,,,,,,,,,,,,,,,,,,,,,,,,,,,,,,,,,,,,,,,,,,,1636142163.1957197,,,,,,,,,,,,,,618.7769448757172,None,,,,,,,,,,,,,,,,,,,,,,,,,,,,,,,,,,,,,,617.1764528751373,None,618.1656849384308,None,1,1,0.44782400131225586,618.1656849384308,None,8003,001,13,2021_Nov_05_1447,task-switching-replication,2021.2.3,60.0056367447084,
3,21,experiment,13,sitting,switch,incongruant,dashed,triangle,yellow,stimuli/dashed-rectangle.png,stimuli/yellow-triangle.png,2,,,,,,,,,,,,,,,,,,,,,,,,,0,0,0,0,2,0,2,0,0,20,20,20,,,,,,,,,,,,,,,,,,,,,,,,,,,,,,,,,,,,,,,,,,,,,,,,,,,,,,,,,,,,,,,1636142165.0860822,,,,,,,,,,,,,,620.6671488285065,None,,,,,,,,,,,,,,,,,,,,,,,,,,,,,,,,,,,,,,619.0063378810883,None,619.9956059455872,None,2,1,0.5419869422912598,619.9956059455872,None,8003,001,13,2021_Nov_05_1447,task-switching-replication,2021.2.3,60.0056367447084,
3,22,experiment,13,sitting,switch,incongruant,solid,triangle,blue,stimuli/solid-rectangle.png,stimuli/blue-triangle.png,1,,,,,,,,,,,,,,,,,,,,,,,,,0,0,0,0,2,0,2,0,0,21,21,21,,,,,,,,,,,,,,,,,,,,,,,,,,,,,,,,,,,,,,,,,,,,,,,,,,,,,,,,,,,,,,,1636142166.9176466,,,,,,,,,,,,,,622.4987888336182,None,,,,,,,,,,,,,,,,,,,,,,,,,,,,,,,,,,,,,,620.8967978954315,None,621.8854038715363,None,1,1,0.4797661304473877,621.8854038715363,None,8003,001,13,2021_Nov_05_1447,task-switching-replication,2021.2.3,60.0056367447084,
3,23,experiment,13,sitting,switch,incongruant,dashed,square,yellow,stimuli/dashed-rectangle.png,stimuli/yellow-square.png,2,,,,,,,,,,,,,,,,,,,,,,,,,0,0,0,0,2,0,2,0,0,22,22,22,,,,,,,,,,,,,,,,,,,,,,,,,,,,,,,,,,,,,,,,,,,,,,,,,,,,,,,,,,,,,,,1636142168.93019,,,,,,,,,,,,,,624.5115239620209,None,,,,,,,,,,,,,,,,,,,,,,,,,,,,,,,,,,,,,,622.7283368110657,None,623.7175970077515,None,2,1,0.6300280094146729,623.7175970077515,None,8003,001,13,2021_Nov_05_1447,task-switching-replication,2021.2.3,60.0056367447084,
3,24,experiment,13,sitting,switch,incongruant,solid,triangle,yellow,stimuli/solid-rectangle.png,stimuli/yellow-triangle.png,1,,,,,,,,,,,,,,,,,,,,,,,,,0,0,0,0,2,0,2,0,0,23,23,23,,,,,,,,,,,,,,,,,,,,,,,,,,,,,,,,,,,,,,,,,,,,,,,,,,,,,,,,,,,,,,,1636142170.8820996,,,,,,,,,,,,,,626.463045835495,None,,,,,,,,,,,,,,,,,,,,,,,,,,,,,,,,,,,,,,624.7412269115448,None,625.7316529750824,None,1,1,0.6078178882598877,625.7316529750824,None,8003,001,13,2021_Nov_05_1447,task-switching-replication,2021.2.3,60.0056367447084,
3,25,experiment,13,sitting,switch,congruant,dashed,square,blue,stimuli/dashed-rectangle.png,stimuli/blue-square.png,1,,,,,,,,,,,,,,,,,,,,,,,,,0,0,0,0,2,0,2,0,0,24,24,24,,,,,,,,,,,,,,,,,,,,,,,,,,,,,,,,,,,,,,,,,,,,,,,,,,,,,,,,,,,,,,,1636142172.5344272,,,,,,,,,,,,,,628.1161890029907,None,,,,,,,,,,,,,,,,,,,,,,,,,,,,,,,,,,,,,,626.6922779083252,None,627.6822669506073,None,1,1,0.2878730297088623,627.6822669506073,None,8003,001,13,2021_Nov_05_1447,task-switching-replication,2021.2.3,60.0056367447084,
3,26,experiment,13,sitting,switch,congruant,solid,triangle,blue,stimuli/solid-rectangle.png,stimuli/blue-triangle.png,1,,,,,,,,,,,,,,,,,,,,,,,,,0,0,0,0,2,0,2,0,0,25,25,25,,,,,,,,,,,,,,,,,,,,,,,,,,,,,,,,,,,,,,,,,,,,,,,,,,,,,,,,,,,,,,,1636142174.3641644,,,,,,,,,,,,,,629.945878982544,None,,,,,,,,,,,,,,,,,,,,,,,,,,,,,,,,,,,,,,628.3453719615936,None,629.3345668315887,None,1,1,0.47167015075683594,629.3345668315887,None,8003,001,13,2021_Nov_05_1447,task-switching-replication,2021.2.3,60.0056367447084,
3,27,experiment,13,sitting,switch,incongruant,dashed,triangle,yellow,stimuli/dashed-rectangle.png,stimuli/yellow-triangle.png,2,,,,,,,,,,,,,,,,,,,,,,,,,0,0,0,0,2,0,2,0,0,26,26,26,,,,,,,,,,,,,,,,,,,,,,,,,,,,,,,,,,,,,,,,,,,,,,,,,,,,,,,,,,,,,,,1636142176.4322846,,,,,,,,,,,,,,632.0139238834381,None,,,,,,,,,,,,,,,,,,,,,,,,,,,,,,,,,,,,,,630.1752219200134,None,631.1653578281403,None,2,1,0.7319347858428955,631.1653578281403,None,8003,001,13,2021_Nov_05_1447,task-switching-replication,2021.2.3,60.0056367447084,
3,28,experiment,13,sitting,switch,incongruant,solid,triangle,yellow,stimuli/solid-rectangle.png,stimuli/yellow-triangle.png,1,,,,,,,,,,,,,,,,,,,,,,,,,0,0,0,0,2,0,2,0,0,27,27,27,,,,,,,,,,,,,,,,,,,,,,,,,,,,,,,,,,,,,,,,,,,,,,,,,,,,,,,,,,,,,,,1636142178.3824687,,,,,,,,,,,,,,633.9633648395538,None,,,,,,,,,,,,,,,,,,,,,,,,,,,,,,,,,,,,,,632.2432918548584,None,633.2325358390808,None,1,1,0.6025750637054443,633.2325358390808,None,8003,001,13,2021_Nov_05_1447,task-switching-replication,2021.2.3,60.0056367447084,
3,29,experiment,13,sitting,switch,congruant,dashed,triangle,blue,stimuli/dashed-rectangle.png,stimuli/blue-triangle.png,1,,,,,,,,,,,,,,,,,,,,,,,,,0,0,0,0,2,0,2,0,0,28,28,28,,,,,,,,,,,,,,,,,,,,,,,,,,,,,,,,,,,,,,,,,,,,,,,,,,,,,,,,,,,,,,,1636142180.0935163,,,,,,,,,,,,,,635.6756319999695,None,,,,,,,,,,,,,,,,,,,,,,,,,,,,,,,,,,,,,,634.1928539276123,None,635.1824889183044,None,1,1,0.37473106384277344,635.1824889183044,None,8003,001,13,2021_Nov_05_1447,task-switching-replication,2021.2.3,60.0056367447084,
3,30,experiment,13,sitting,noswitch,incongruant,dashed,square,yellow,stimuli/dashed-rectangle.png,stimuli/yellow-square.png,2,,,,,,,,,,,,,,,,,,,,,,,,,0,0,0,0,2,0,2,0,0,29,29,29,,,,,,,,,,,,,,,,,,,,,,,,,,,,,,,,,,,,,,,,,,,,,,,,,,,,,,,,,,,,,,,1636142181.7469313,,,,,,,,,,,,,,637.3283948898315,None,,,,,,,,,,,,,,,,,,,,,,,,,,,,,,,,,,,,,,635.9049048423767,None,636.8937129974365,None,2,1,0.3006598949432373,636.8937129974365,None,8003,001,13,2021_Nov_05_1447,task-switching-replication,2021.2.3,60.0056367447084,
3,31,experiment,13,sitting,noswitch,incongruant,dashed,square,blue,stimuli/dashed-rectangle.png,stimuli/blue-square.png,1,,,,,,,,,,,,,,,,,,,,,,,,,0,0,0,0,2,0,2,0,0,30,30,30,,,,,,,,,,,,,,,,,,,,,,,,,,,,,,,,,,,,,,,,,,,,,,,,,,,,,,,,,,,,,,,1636142183.4590235,,,,,,,,,,,,,,639.0404789447784,None,,,,,,,,,,,,,,,,,,,,,,,,,,,,,,,,,,,,,,637.5581250190735,None,638.5478229522705,None,1,1,0.3812839984893799,638.5478229522705,None,8003,001,13,2021_Nov_05_1447,task-switching-replication,2021.2.3,60.0056367447084,
3,32,experiment,13,sitting,switch,congruant,solid,triangle,yellow,stimuli/solid-rectangle.png,stimuli/yellow-triangle.png,1,,,,,,,,,,,,,,,,,,,,,,,,,0,0,0,0,2,0,2,0,0,31,31,31,,,,,,,,,,,,,,,,,,,,,,,,,,,,,,,,,,,,,,,,,,,,,,,,,,,,,,,,,,,,,,,1636142185.7619264,,,,,,,,,,,,,,641.3446040153503,None,,,,,,,,,,,,,,,,,,,,,,,,,,,,,,,,,,,,,,639.2696800231934,None,640.2582278251648,None,1,1,0.9748401641845703,640.2582278251648,None,8003,001,13,2021_Nov_05_1447,task-switching-replication,2021.2.3,60.0056367447084,
3,33,experiment,13,sitting,noswitch,incongruant,solid,square,blue,stimuli/solid-rectangle.png,stimuli/blue-square.png,2,,,,,,,,,,,,,,,,,,,,,,,,,0,0,0,0,2,0,2,0,0,32,32,32,,,,,,,,,,,,,,,,,,,,,,,,,,,,,,,,,,,,,,,,,,,,,,,,,,,,,,,,,,,,,,,1636142187.5333385,,,,,,,,,,,,,,643.1148629188538,None,,,,,,,,,,,,,,,,,,,,,,,,,,,,,,,,,,,,,,641.573972940445,None,642.5630559921265,None,2,1,0.4479849338531494,642.5630559921265,None,8003,001,13,2021_Nov_05_1447,task-switching-replication,2021.2.3,60.0056367447084,
3,34,experiment,13,sitting,noswitch,congruant,solid,square,blue,stimuli/solid-rectangle.png,stimuli/blue-square.png,2,,,,,,,,,,,,,,,,,,,,,,,,,0,0,0,0,2,0,2,0,0,33,33,33,,,,,,,,,,,,,,,,,,,,,,,,,,,,,,,,,,,,,,,,,,,,,,,,,,,,,,,,,,,,,,,1636142189.2475755,,,,,,,,,,,,,,644.8299479484558,None,,,,,,,,,,,,,,,,,,,,,,,,,,,,,,,,,,,,,,643.344025850296,None,644.3358058929443,None,2,1,0.3665499687194824,644.3358058929443,None,8003,001,13,2021_Nov_05_1447,task-switching-replication,2021.2.3,60.0056367447084,
