blockNum,trialNum,trialType,condition,posture,switchTrialType,congruantTrialType,cueType,shapeType,shapeColor,cueFileName,stimuliFileName,correctAnswer,untimedTrials.thisRepN,untimedTrials.thisTrialN,untimedTrials.thisN,untimedTrials.thisIndex,selectSolid1.thisRepN,selectSolid1.thisTrialN,selectSolid1.thisN,selectSolid1.thisIndex,selectDashed1.thisRepN,selectDashed1.thisTrialN,selectDashed1.thisN,selectDashed1.thisIndex,timedTrials.thisRepN,timedTrials.thisTrialN,timedTrials.thisN,timedTrials.thisIndex,selectSolid2.thisRepN,selectSolid2.thisTrialN,selectSolid2.thisN,selectSolid2.thisIndex,selectDashed2.thisRepN,selectDashed2.thisTrialN,selectDashed2.thisN,selectDashed2.thisIndex,postures.thisRepN,postures.thisTrialN,postures.thisN,postures.thisIndex,blocks.thisRepN,blocks.thisTrialN,blocks.thisN,blocks.thisIndex,trials.thisRepN,trials.thisTrialN,trials.thisN,trials.thisIndex,selectSolid.thisRepN,selectSolid.thisTrialN,selectSolid.thisN,selectSolid.thisIndex,selectDashed.thisRepN,selectDashed.thisTrialN,selectDashed.thisN,selectDashed.thisIndex,text_3.started,text_3.stopped,key_resp_2.keys,key_resp_2.rt,key_resp_2.started,key_resp_2.stopped,image_4.started,image_4.stopped,key_resp_4.keys,key_resp_4.rt,key_resp_4.started,key_resp_4.stopped,image_5.started,image_5.stopped,key_resp_5.keys,key_resp_5.rt,key_resp_5.started,key_resp_5.stopped,image_6.started,image_6.stopped,key_resp_6.keys,key_resp_6.rt,key_resp_6.started,key_resp_6.stopped,image_7.started,image_7.stopped,key_resp_7.keys,key_resp_7.rt,key_resp_7.started,key_resp_7.stopped,image_8.started,image_8.stopped,key_resp_8.keys,key_resp_8.rt,key_resp_8.started,key_resp_8.stopped,image_9.started,image_9.stopped,key_resp_9.keys,key_resp_9.rt,key_resp_9.started,key_resp_9.stopped,image_10.started,image_10.stopped,key_resp_10.keys,key_resp_10.rt,key_resp_10.started,key_resp_10.stopped,image_11.started,image_11.stopped,key_resp_11.keys,key_resp_11.rt,key_resp_11.started,key_resp_11.stopped,utcTime,cue_untimed_image.started,cue_untimed_image.stopped,stimuli_untimed_image.started,stimuli_untimed_image.stopped,untimed_resp.keys,untimed_resp.corr,untimed_resp.rt,untimed_resp.started,untimed_resp.stopped,text_2.started,text_2.stopped,sound_2.started,sound_2.stopped,image_3.started,image_3.stopped,image_12.started,image_12.stopped,key_resp_12.keys,key_resp_12.rt,key_resp_12.started,key_resp_12.stopped,image_13.started,image_13.stopped,key_resp_13.keys,key_resp_13.rt,key_resp_13.started,key_resp_13.stopped,cue_timed_image.started,cue_timed_image.stopped,stimuli_timed_image.started,stimuli_timed_image.stopped,timed_resp.keys,timed_resp.corr,timed_resp.rt,timed_resp.started,timed_resp.stopped,sound_1.started,sound_1.stopped,image_2.started,image_2.stopped,image.started,image.stopped,key_response.keys,key_response.rt,key_response.started,key_response.stopped,text.started,text.stopped,key_resp.keys,key_resp.rt,key_resp.started,key_resp.stopped,cue_image.started,cue_image.stopped,stimuli_image.started,stimuli_image.stopped,exp_resp.keys,exp_resp.corr,exp_resp.rt,exp_resp.started,exp_resp.stopped,participant,session,condition,date,expName,psychopyVersion,frameRate,
,,,04,,,,,,,,,,,,,,,,,,,,,,,,,,,,,,,,,,,,,,,,,,,,,,,,,,,,,,30.421074151992798,None,1,20.109269857406616,30.421074151992798,None,,,,,,,,,,,,,,,,,,,,,,,,,,,,,,,,,,,,,,,,,,,,,,,,,,,,,,,,,,,,,,,,,,,,,,,,,,,,,,,,,,,,,,,,,,,,,,,,,,,,,,,,,,,,,,,8004,001,04,2021_Nov_05_1100,task-switching-replication,2021.2.3,60.01284874395658,
,,,04,,,,,,,,,,,,,,,,,,,,,,,,,,,,,,,,,,,,,,,,,,,,,,,,,,,,,,,,,,,,50.58045816421509,None,1,1.2802700996398926,50.58045816421509,None,,,,,,,,,,,,,,,,,,,,,,,,,,,,,,,,,,,,,,,,,,,,,,,,,,,,,,,,,,,,,,,,,,,,,,,,,,,,,,,,,,,,,,,,,,,,,,,,,,,,,,,,,8004,001,04,2021_Nov_05_1100,task-switching-replication,2021.2.3,60.01284874395658,
,,,04,,,,,,,,,,,,,,,,,,,,,,,,,,,,,,,,,,,,,,,,,,,,,,,,,,,,,,,,,,,,,,,,,,51.89334511756897,None,1,14.161340951919556,51.89334511756897,None,,,,,,,,,,,,,,,,,,,,,,,,,,,,,,,,,,,,,,,,,,,,,,,,,,,,,,,,,,,,,,,,,,,,,,,,,,,,,,,,,,,,,,,,,,,,,,,,,,,8004,001,04,2021_Nov_05_1100,task-switching-replication,2021.2.3,60.01284874395658,
,,,04,,,,,,,,,,,,,,,,,,,,,,,,,,,,,,,,,,,,,,,,,,,,,,,,,,,,,,,,,,,,,,,,,,,,,,,,66.09971499443054,None,2,11.851555109024048,66.09971499443054,None,,,,,,,,,,,,,,,,,,,,,,,,,,,,,,,,,,,,,,,,,,,,,,,,,,,,,,,,,,,,,,,,,,,,,,,,,,,,,,,,,,,,,,,,,,,,,8004,001,04,2021_Nov_05_1100,task-switching-replication,2021.2.3,60.01284874395658,
,,,04,,,,,,,,,,,,,,,,,,,,,,,,,,,,,,,,,,,,,,,,,,,,,,,,,,,,,,,,,,,,,,,,,,,,,,,,,,,,,,77.99091911315918,None,2,10.135783195495605,77.99091911315918,None,,,,,,,,,,,,,,,,,,,,,,,,,,,,,,,,,,,,,,,,,,,,,,,,,,,,,,,,,,,,,,,,,,,,,,,,,,,,,,,,,,,,,,,8004,001,04,2021_Nov_05_1100,task-switching-replication,2021.2.3,60.01284874395658,
,,,04,,,,,,,,,,,,,,,,,,,,,,,,,,,,,,,,,,,,,,,,,,,,,,,,,,,,,,,,,,,,,,,,,,,,,,,,,,,,,,,,,,,,88.17891907691956,None,1,11.314584016799927,88.17891907691956,None,,,,,,,,,,,,,,,,,,,,,,,,,,,,,,,,,,,,,,,,,,,,,,,,,,,,,,,,,,,,,,,,,,,,,,,,,,,,,,,,,8004,001,04,2021_Nov_05_1100,task-switching-replication,2021.2.3,60.01284874395658,
,,,04,,,,,,,,,,,,,,,,,,,,,,,,,,,,,,,,,,,,,,,,,,,,,,,,,,,,,,,,,,,,,,,,,,,,,,,,,,,,,,,,,,,,,,,,,,99.53322410583496,None,2,6.735267162322998,99.53322410583496,None,,,,,,,,,,,,,,,,,,,,,,,,,,,,,,,,,,,,,,,,,,,,,,,,,,,,,,,,,,,,,,,,,,,,,,,,,,,8004,001,04,2021_Nov_05_1100,task-switching-replication,2021.2.3,60.01284874395658,
,,,04,,,,,,,,,,,,,,,,,,,,,,,,,,,,,,,,,,,,,,,,,,,,,,,,,,,,,,,,,,,,,,,,,,,,,,,,,,,,,,,,,,,,,,,,,,,,,,,,106.31921005249023,None,2,2.9284520149230957,106.31921005249023,None,,,,,,,,,,,,,,,,,,,,,,,,,,,,,,,,,,,,,,,,,,,,,,,,,,,,,,,,,,,,,,,,,,,,,8004,001,04,2021_Nov_05_1100,task-switching-replication,2021.2.3,60.01284874395658,
,,,04,,,,,,,,,,,,,,,,,,,,,,,,,,,,,,,,,,,,,,,,,,,,,,,,,,,,,,,,,,,,,,,,,,,,,,,,,,,,,,,,,,,,,,,,,,,,,,,,,,,,,,109.28886318206787,None,1,15.712625980377197,109.28886318206787,None,,,,,,,,,,,,,,,,,,,,,,,,,,,,,,,,,,,,,,,,,,,,,,,,,,,,,,,,,,,,,,,8004,001,04,2021_Nov_05_1100,task-switching-replication,2021.2.3,60.01284874395658,
1,1,untimed,04,standing,buffer,buffer,dashed,triangle,blue,stimuli/dashed-rectangle.png,stimuli/blue-triangle.png,2,0,0,0,0,,,,,,,,,,,,,,,,,,,,,,,,,,,,,,,,,,,,,,,,,,,,,,,,,,,,,,,,,,,,,,,,,,,,,,,,,,,,,,,,,,,,,,,,,,,,,,,1636128114.048204,125.08694219589233,None,126.08093500137329,None,2,1,0.6091289520263672,126.08093500137329,None,126.77238202095032,None,,,,,,,,,,,,,,,,,,,,,,,,,,,,,,,,,,,,,,,,,,,,,,,,,,,8004,001,04,2021_Nov_05_1100,task-switching-replication,2021.2.3,60.01284874395658,
1,2,untimed,04,standing,switch,incongruant,solid,square,yellow,stimuli/solid-rectangle.png,stimuli/yellow-square.png,1,0,1,1,1,,,,,,,,,,,,,,,,,,,,,,,,,,,,,,,,,,,,,,,,,,,,,,,,,,,,,,,,,,,,,,,,,,,,,,,,,,,,,,,,,,,,,,,,,,,,,,,1636128115.6474056,126.98938512802124,None,127.96336817741394,None,1,1,0.3402118682861328,127.96336817741394,None,128.37055015563965,None,,,,,,,,,,,,,,,,,,,,,,,,,,,,,,,,,,,,,,,,,,,,,,,,,,,8004,001,04,2021_Nov_05_1100,task-switching-replication,2021.2.3,60.01284874395658,
1,3,untimed,04,standing,noswitch,congruant,solid,triangle,yellow,stimuli/solid-rectangle.png,stimuli/yellow-triangle.png,1,0,2,2,2,,,,,,,,,,,,,,,,,,,,,,,,,,,,,,,,,,,,,,,,,,,,,,,,,,,,,,,,,,,,,,,,,,,,,,,,,,,,,,,,,,,,,,,,,,,,,,,1636128117.4338455,128.5885260105133,None,129.56268215179443,None,1,1,0.5385940074920654,129.56268215179443,None,130.15821409225464,None,,,,,,,,,,,,,,,,,,,,,,,,,,,,,,,,,,,,,,,,,,,,,,,,,,,8004,001,04,2021_Nov_05_1100,task-switching-replication,2021.2.3,60.01284874395658,
1,4,untimed,04,standing,noswitch,incongruant,solid,triangle,blue,stimuli/solid-rectangle.png,stimuli/blue-triangle.png,2,0,3,3,3,,,,,,,,,,,,,,,,,,,,,,,,,,,,,,,,,,,,,,,,,,,,,,,,,,,,,,,,,,,,,,,,,,,,,,,,,,,,,,,,,,,,,,,,,,,,,,,1636128119.226996,130.3765571117401,None,131.3509759902954,None,2,1,0.532742977142334,131.3509759902954,None,131.95329308509827,None,,,,,,,,,,,,,,,,,,,,,,,,,,,,,,,,,,,,,,,,,,,,,,,,,,,8004,001,04,2021_Nov_05_1100,task-switching-replication,2021.2.3,60.01284874395658,
1,5,untimed,04,standing,switch,incongruant,dashed,square,yellow,stimuli/dashed-rectangle.png,stimuli/yellow-square.png,1,0,4,4,4,,,,,,,,,,,,,,,,,,,,,,,,,,,,,,,,,,,,,,,,,,,,,,,,,,,,,,,,,,,,,,,,,,,,,,,,,,,,,,,,,,,,,,,,,,,,,,,1636128121.015936,132.15989017486572,None,133.12879300117493,None,1,1,0.5313429832458496,133.12879300117493,None,133.74649000167847,None,,,,,,,,,,,,,,,,,,,,,,,,,,,,,,,,,,,,,,,,,,,,,,,,,,,8004,001,04,2021_Nov_05_1100,task-switching-replication,2021.2.3,60.01284874395658,
1,6,untimed,04,standing,noswitch,congruant,dashed,square,yellow,stimuli/dashed-rectangle.png,stimuli/yellow-square.png,1,0,5,5,5,,,,,,,,,,,,,,,,,,,,,,,,,,,,,,,,,,,,,,,,,,,,,,,,,,,,,,,,,,,,,,,,,,,,,,,,,,,,,,,,,,,,,,,,,,,,,,,1636128122.6840208,133.95261001586914,None,134.94232416152954,None,1,1,0.4108419418334961,134.94232416152954,None,135.4156219959259,None,,,,,,,,,,,,,,,,,,,,,,,,,,,,,,,,,,,,,,,,,,,,,,,,,,,8004,001,04,2021_Nov_05_1100,task-switching-replication,2021.2.3,60.01284874395658,
1,7,untimed,04,standing,switch,congruant,solid,square,yellow,stimuli/solid-rectangle.png,stimuli/yellow-square.png,1,0,6,6,6,,,,,,,,,,,,,,,,,,,,,,,,,,,,,,,,,,,,,,,,,,,,,,,,,,,,,,,,,,,,,,,,,,,,,,,,,,,,,,,,,,,,,,,,,,,,,,,1636128124.3347354,135.6228370666504,None,136.59258008003235,None,1,1,0.3926970958709717,136.59258008003235,None,137.06679606437683,None,,,,,,,,,,,,,,,,,,,,,,,,,,,,,,,,,,,,,,,,,,,,,,,,,,,8004,001,04,2021_Nov_05_1100,task-switching-replication,2021.2.3,60.01284874395658,
1,8,untimed,04,standing,switch,congruant,dashed,square,blue,stimuli/dashed-rectangle.png,stimuli/blue-square.png,1,0,7,7,7,,,,,0,0,0,0,,,,,,,,,,,,,,,,,,,,,,,,,,,,,,,,,,,,,,,,,,,,,,,,,,,,,,,,,,,,,,,,,,,,,,,,,,,,,,,,,,,,,,,1636128126.367246,137.27406811714172,None,138.26251912117004,None,2,0,0.7491400241851807,138.26251912117004,None,,,139.0850742816925,140.10566306114197,139.10286808013916,None,,,,,,,,,,,,,,,,,,,,,,,,,,,,,,,,,,,,,,,,,,,,,,,8004,001,04,2021_Nov_05_1100,task-switching-replication,2021.2.3,60.01284874395658,
1,8,untimed,04,standing,switch,congruant,dashed,square,blue,stimuli/dashed-rectangle.png,stimuli/blue-square.png,1,0,7,7,7,,,,,,,,,,,,,,,,,,,,,,,,,,,,,,,,,,,,,,,,,,,,,,,,,,,,,,,,,,,,,,,,,,,,,,,,,,,,,,,,,,,,,,,,,,,,,,,,,,,,,,,,,144.1176950931549,None,,,,,,,,,,,,,,,,,,,,,,,,,,,,,,,,,,,,,,,,,,,,,,,,,,,8004,001,04,2021_Nov_05_1100,task-switching-replication,2021.2.3,60.01284874395658,
1,9,untimed,04,standing,switch,incongruant,solid,square,blue,stimuli/solid-rectangle.png,stimuli/blue-square.png,2,0,8,8,8,,,,,,,,,,,,,,,,,,,,,,,,,,,,,,,,,,,,,,,,,,,,,,,,,,,,,,,,,,,,,,,,,,,,,,,,,,,,,,,,,,,,,,,,,,,,,,,1636128133.270172,144.32472801208496,None,145.3073329925537,None,2,1,0.6009581089019775,145.3073329925537,None,146.00945615768433,None,,,,,,,,,,,,,,,,,,,,,,,,,,,,,,,,,,,,,,,,,,,,,,,,,,,8004,001,04,2021_Nov_05_1100,task-switching-replication,2021.2.3,60.01284874395658,
1,10,untimed,04,standing,switch,congruant,dashed,triangle,yellow,stimuli/dashed-rectangle.png,stimuli/yellow-triangle.png,2,0,9,9,9,,,,,,,,,,,,,,,,,,,,,,,,,,,,,,,,,,,,,,,,,,,,,,,,,,,,,,,,,,,,,,,,,,,,,,,,,,,,,,,,,,,,,,,,,,,,,,,1636128135.4067273,146.2196660041809,None,147.19983100891113,None,2,1,0.8584871292114258,147.19983100891113,None,148.14535212516785,None,,,,,,,,,,,,,,,,,,,,,,,,,,,,,,,,,,,,,,,,,,,,,,,,,,,8004,001,04,2021_Nov_05_1100,task-switching-replication,2021.2.3,60.01284874395658,
1,11,untimed,04,standing,switch,congruant,solid,square,blue,stimuli/solid-rectangle.png,stimuli/blue-square.png,2,0,10,10,10,,,,,,,,,,,,,,,,,,,,,,,,,,,,,,,,,,,,,,,,,,,,,,,,,,,,,,,,,,,,,,,,,,,,,,,,,,,,,,,,,,,,,,,,,,,,,,,1636128137.3789074,148.35352301597595,None,149.33445620536804,None,2,1,0.6858711242675781,149.33445620536804,None,150.11764812469482,None,,,,,,,,,,,,,,,,,,,,,,,,,,,,,,,,,,,,,,,,,,,,,,,,,,,8004,001,04,2021_Nov_05_1100,task-switching-replication,2021.2.3,60.01284874395658,
1,12,untimed,04,standing,switch,congruant,dashed,triangle,yellow,stimuli/dashed-rectangle.png,stimuli/yellow-triangle.png,2,0,11,11,11,,,,,0,0,0,0,,,,,,,,,,,,,,,,,,,,,,,,,,,,,,,,,,,,,,,,,,,,,,,,,,,,,,,,,,,,,,,,,,,,,,,,,,,,,,,,,,,,,,,1636128139.5194652,150.32570004463196,None,151.30676102638245,None,1,0,0.8445150852203369,151.30676102638245,None,,,152.25160794258116,153.26648211479187,152.26282000541687,None,,,,,,,,,,,,,,,,,,,,,,,,,,,,,,,,,,,,,,,,,,,,,,,8004,001,04,2021_Nov_05_1100,task-switching-replication,2021.2.3,60.01284874395658,
1,12,untimed,04,standing,switch,congruant,dashed,triangle,yellow,stimuli/dashed-rectangle.png,stimuli/yellow-triangle.png,2,0,11,11,11,,,,,,,,,,,,,,,,,,,,,,,,,,,,,,,,,,,,,,,,,,,,,,,,,,,,,,,,,,,,,,,,,,,,,,,,,,,,,,,,,,,,,,,,,,,,,,,,,,,,,,,,,157.2775800228119,None,,,,,,,,,,,,,,,,,,,,,,,,,,,,,,,,,,,,,,,,,,,,,,,,,,,8004,001,04,2021_Nov_05_1100,task-switching-replication,2021.2.3,60.01284874395658,
,,,04,,,,,,,,,,,,,,,,,,,,,,,,,,,,,,,,,,,,,,,,,,,,,,,,,,,,,,,,,,,,,,,,,,,,,,,,,,,,,,,,,,,,,,,,,,,,,,,,,,,,,,,,,,,,,,,,,,,,,,,,,,,,157.4630651473999,None,2,1.4642930030822754,157.4630651473999,None,,,,,,,,,,,,,,,,,,,,,,,,,,,,,,,,,,,,,,,,,8004,001,04,2021_Nov_05_1100,task-switching-replication,2021.2.3,60.01284874395658,
,,,04,,,,,,,,,,,,,,,,,,,,,,,,,,,,,,,,,,,,,,,,,,,,,,,,,,,,,,,,,,,,,,,,,,,,,,,,,,,,,,,,,,,,,,,,,,,,,,,,,,,,,,,,,,,,,,,,,,,,,,,,,,,,,,,,,,158.99487209320068,None,1,7.396164894104004,158.99487209320068,None,,,,,,,,,,,,,,,,,,,,,,,,,,,,,,,,,,,8004,001,04,2021_Nov_05_1100,task-switching-replication,2021.2.3,60.01284874395658,
1,1,timed,04,standing,buffer,buffer,solid,triangle,yellow,stimuli/solid-rectangle.png,stimuli/yellow-triangle.png,1,,,,,,,,,,,,,0,0,0,0,0,0,0,0,,,,,,,,,,,,,,,,,,,,,,,,,,,,,,,,,,,,,,,,,,,,,,,,,,,,,,,,,,,,,,,,,,,,,,,,,,,,,,,1636128155.3148017,,,,,,,,,,,,,,,,,,,,,,,,,,,,166.49553608894348,None,167.47833514213562,None,2,0,0.48406219482421875,167.47833514213562,None,168.04695086479185,169.06137108802795,168.05779910087585,None,,,,,,,,,,,,,,,,,,,,,,8004,001,04,2021_Nov_05_1100,task-switching-replication,2021.2.3,60.01284874395658,
1,1,timed,04,standing,buffer,buffer,solid,triangle,yellow,stimuli/solid-rectangle.png,stimuli/yellow-triangle.png,1,,,,,,,,,,,,,0,0,0,0,,,,,,,,,,,,,,,,,,,,,,,,,,,,,,,,,,,,,,,,,,,,,,,,,,,,,,,,,,,,,,,,,,,,,,,,,,,,,,,,,,,,,,,,,,,,,173.0727140903473,None,,,,,,,,,,,,,,,,,,,,,,,,,,,,,,,,,,,,,,,,,,,,,,,,,,,8004,001,04,2021_Nov_05_1100,task-switching-replication,2021.2.3,60.01284874395658,
1,2,timed,04,standing,noswitch,incongruant,solid,square,blue,stimuli/solid-rectangle.png,stimuli/blue-square.png,2,,,,,,,,,,,,,0,1,1,1,0,0,0,0,,,,,,,,,,,,,,,,,,,,,,,,,,,,,,,,,,,,,,,,,,,,,,,,,,,,,,,,,,,,,,,,,,,,,,,,,,,,,,,1636128162.1143806,,,,,,,,,,,,,,,,,,,,,,,,,,,,173.2579309940338,None,174.23973608016968,None,1,0,0.522515058517456,174.23973608016968,None,174.84648184776304,175.85952520370483,174.85695910453796,None,,,,,,,,,,,,,,,,,,,,,,8004,001,04,2021_Nov_05_1100,task-switching-replication,2021.2.3,60.01284874395658,
1,2,timed,04,standing,noswitch,incongruant,solid,square,blue,stimuli/solid-rectangle.png,stimuli/blue-square.png,2,,,,,,,,,,,,,0,1,1,1,,,,,,,,,,,,,,,,,,,,,,,,,,,,,,,,,,,,,,,,,,,,,,,,,,,,,,,,,,,,,,,,,,,,,,,,,,,,,,,,,,,,,,,,,,,,,179.88322114944458,None,,,,,,,,,,,,,,,,,,,,,,,,,,,,,,,,,,,,,,,,,,,,,,,,,,,8004,001,04,2021_Nov_05_1100,task-switching-replication,2021.2.3,60.01284874395658,
1,3,timed,04,standing,noswitch,incongruant,solid,square,yellow,stimuli/solid-rectangle.png,stimuli/yellow-square.png,1,,,,,,,,,,,,,0,2,2,2,0,0,0,0,,,,,,,,,,,,,,,,,,,,,,,,,,,,,,,,,,,,,,,,,,,,,,,,,,,,,,,,,,,,,,,,,,,,,,,,,,,,,,,1636128169.2252057,,,,,,,,,,,,,,,,,,,,,,,,,,,,180.0790150165558,None,181.06605005264282,None,2,0,0.8018500804901123,181.06605005264282,None,181.95248990058897,182.99091506004333,181.98247599601746,None,,,,,,,,,,,,,,,,,,,,,,8004,001,04,2021_Nov_05_1100,task-switching-replication,2021.2.3,60.01284874395658,
1,3,timed,04,standing,noswitch,incongruant,solid,square,yellow,stimuli/solid-rectangle.png,stimuli/yellow-square.png,1,,,,,,,,,,,,,0,2,2,2,,,,,,,,,,,,,,,,,,,,,,,,,,,,,,,,,,,,,,,,,,,,,,,,,,,,,,,,,,,,,,,,,,,,,,,,,,,,,,,,,,,,,,,,,,,,,186.9904260635376,None,,,,,,,,,,,,,,,,,,,,,,,,,,,,,,,,,,,,,,,,,,,,,,,,,,,8004,001,04,2021_Nov_05_1100,task-switching-replication,2021.2.3,60.01284874395658,
1,4,timed,04,standing,switch,congruant,dashed,square,blue,stimuli/dashed-rectangle.png,stimuli/blue-square.png,1,,,,,,,,,,,,,0,3,3,3,,,,,,,,,,,,,,,,,,,,,,,,,,,,,,,,,,,,,,,,,,,,,,,,,,,,,,,,,,,,,,,,,,,,,,,,,,,,,,,,,,,1636128175.9310246,,,,,,,,,,188.68393301963806,None,,,,,,,,,,,,,,,,,187.18630719184875,None,188.17308902740479,None,1,1,0.4241831302642822,188.17308902740479,None,,,,,,,,,,,,,,,,,,,,,,,,,,8004,001,04,2021_Nov_05_1100,task-switching-replication,2021.2.3,60.01284874395658,
1,5,timed,04,standing,noswitch,incongruant,dashed,triangle,yellow,stimuli/dashed-rectangle.png,stimuli/yellow-triangle.png,2,,,,,,,,,,,,,0,4,4,4,,,,,,,,,,,,,,,,,,,,,,,,,,,,,,,,,,,,,,,,,,,,,,,,,,,,,,,,,,,,,,,,,,,,,,,,,,,,,,,,,,,1636128177.7015078,,,,,,,,,,190.4546639919281,None,,,,,,,,,,,,,,,,,188.90674805641174,None,189.89408612251282,None,2,1,0.47805094718933105,189.89408612251282,None,,,,,,,,,,,,,,,,,,,,,,,,,,8004,001,04,2021_Nov_05_1100,task-switching-replication,2021.2.3,60.01284874395658,
1,6,timed,04,standing,switch,congruant,solid,triangle,blue,stimuli/solid-rectangle.png,stimuli/blue-triangle.png,2,,,,,,,,,,,,,0,5,5,5,0,0,0,0,,,,,,,,,,,,,,,,,,,,,,,,,,,,,,,,,,,,,,,,,,,,,,,,,,,,,,,,,,,,,,,,,,,,,,,,,,,,,,,1636128179.7697268,,,,,,,,,,,,,,,,,,,,,,,,,,,,190.67760610580444,None,191.6646339893341,None,1,0,0.7690238952636719,191.6646339893341,None,192.49698381423948,193.53487610816956,192.52692008018494,None,,,,,,,,,,,,,,,,,,,,,,8004,001,04,2021_Nov_05_1100,task-switching-replication,2021.2.3,60.01284874395658,
1,6,timed,04,standing,switch,congruant,solid,triangle,blue,stimuli/solid-rectangle.png,stimuli/blue-triangle.png,2,,,,,,,,,,,,,0,5,5,5,,,,,,,,,,,,,,,,,,,,,,,,,,,,,,,,,,,,,,,,,,,,,,,,,,,,,,,,,,,,,,,,,,,,,,,,,,,,,,,,,,,,,,,,,,,,,197.53580403327942,None,,,,,,,,,,,,,,,,,,,,,,,,,,,,,,,,,,,,,,,,,,,,,,,,,,,8004,001,04,2021_Nov_05_1100,task-switching-replication,2021.2.3,60.01284874395658,
1,7,timed,04,standing,switch,incongruant,dashed,square,blue,stimuli/dashed-rectangle.png,stimuli/blue-square.png,1,,,,,,,,,,,,,0,6,6,6,,,,,,,,,,,,,,,,,,,,,,,,,,,,,,,,,,,,,,,,,,,,,,,,,,,,,,,,,,,,,,,,,,,,,,,,,,,,,,,,,,,1636128186.4758987,,,,,,,,,,199.228933095932,None,,,,,,,,,,,,,,,,,197.73145198822021,None,198.7179582118988,None,1,1,0.3828849792480469,198.7179582118988,None,,,,,,,,,,,,,,,,,,,,,,,,,,8004,001,04,2021_Nov_05_1100,task-switching-replication,2021.2.3,60.01284874395658,
1,8,timed,04,standing,switch,congruant,solid,triangle,yellow,stimuli/solid-rectangle.png,stimuli/yellow-triangle.png,1,,,,,,,,,,,,,0,7,7,7,0,0,0,0,,,,,,,,,,,,,,,,,,,,,,,,,,,,,,,,,,,,,,,,,,,,,,,,,,,,,,,,,,,,,,,,,,,,,,,,,,,,,,,1636128188.747539,,,,,,,,,,,,,,,,,,,,,,,,,,,,199.45193219184875,None,200.4384310245514,None,2,0,0.936852216720581,200.4384310245514,None,201.47484879493712,202.51384711265564,201.50474214553833,None,,,,,,,,,,,,,,,,,,,,,,8004,001,04,2021_Nov_05_1100,task-switching-replication,2021.2.3,60.01284874395658,
1,8,timed,04,standing,switch,congruant,solid,triangle,yellow,stimuli/solid-rectangle.png,stimuli/yellow-triangle.png,1,,,,,,,,,,,,,0,7,7,7,,,,,,,,,,,,,,,,,,,,,,,,,,,,,,,,,,,,,,,,,,,,,,,,,,,,,,,,,,,,,,,,,,,,,,,,,,,,,,,,,,,,,,,,,,,,,206.51052498817444,None,,,,,,,,,,,,,,,,,,,,,,,,,,,,,,,,,,,,,,,,,,,,,,,,,,,8004,001,04,2021_Nov_05_1100,task-switching-replication,2021.2.3,60.01284874395658,
1,9,timed,04,standing,switch,incongruant,dashed,triangle,blue,stimuli/dashed-rectangle.png,stimuli/blue-triangle.png,2,,,,,,,,,,,,,0,8,8,8,,,,,,,,,,,,,,,,,,,,,,,,,,,,,,,,,,,,,,,,,,,,,,,,,,,,,,,,,,,,,,,,,,,,,,,,,,,,,,,,,,,1636128195.4552574,,,,,,,,,,208.2084550857544,None,,,,,,,,,,,,,,,,,206.70594716072083,None,207.6976661682129,None,2,1,0.4301598072052002,207.6976661682129,None,,,,,,,,,,,,,,,,,,,,,,,,,,8004,001,04,2021_Nov_05_1100,task-switching-replication,2021.2.3,60.01284874395658,
1,10,timed,04,standing,noswitch,congruant,dashed,triangle,blue,stimuli/dashed-rectangle.png,stimuli/blue-triangle.png,2,,,,,,,,,,,,,0,9,9,9,,,,,,,,,,,,,,,,,,,,,,,,,,,,,,,,,,,,,,,,,,,,,,,,,,,,,,,,,,,,,,,,,,,,,,,,,,,,,,,,,,,1636128197.57294,,,,,,,,,,210.32603812217712,None,,,,,,,,,,,,,,,,,208.43178009986877,None,209.41807007789612,None,2,1,0.7839169502258301,209.41807007789612,None,,,,,,,,,,,,,,,,,,,,,,,,,,8004,001,04,2021_Nov_05_1100,task-switching-replication,2021.2.3,60.01284874395658,
1,11,timed,04,standing,noswitch,incongruant,dashed,square,blue,stimuli/dashed-rectangle.png,stimuli/blue-square.png,1,,,,,,,,,,,,,0,10,10,10,,,,,,,,,,,,,,,,,,,,,,,,,,,,,,,,,,,,,,,,,,,,,,,,,,,,,,,,,,,,,,,,,,,,,,,,,,,,,,,,,,,1636128199.5945857,,,,,,,,,,212.3469340801239,None,,,,,,,,,,,,,,,,,210.5493140220642,None,211.53672814369202,None,1,1,0.7009830474853516,211.53672814369202,None,,,,,,,,,,,,,,,,,,,,,,,,,,8004,001,04,2021_Nov_05_1100,task-switching-replication,2021.2.3,60.01284874395658,
1,12,timed,04,standing,noswitch,congruant,dashed,square,yellow,stimuli/dashed-rectangle.png,stimuli/yellow-square.png,1,,,,,,,,,,,,,0,11,11,11,,,,,,,,,,,,,,,,,,,,,,,,,,,,,,,,,,,,,,,,,,,,,,,,,,,,,,,,,,,,,,,,,,,,,,,,,,,,,,,,,,,1636128201.3602476,,,,,,,,,,214.12768507003784,None,,,,,,,,,,,,,,,,,212.57404017448425,None,213.5754702091217,None,1,1,0.42734599113464355,213.5754702091217,None,,,,,,,,,,,,,,,,,,,,,,,,,,8004,001,04,2021_Nov_05_1100,task-switching-replication,2021.2.3,60.01284874395658,
1,13,timed,04,standing,switch,incongruant,solid,triangle,blue,stimuli/solid-rectangle.png,stimuli/blue-triangle.png,2,,,,,,,,,,,,,0,12,12,12,,,,,,,,,,,,,,,,,,,,,,,,,,,,,,,,,,,,,,,,,,,,,,,,,,,,,,,,,,,,,,,,,,,,,,,,,,,,,,,,,,,1636128203.2551885,,,,,,,,,,216.02208304405212,None,,,,,,,,,,,,,,,,,214.35755014419556,None,215.3486270904541,None,2,1,0.5098860263824463,215.3486270904541,None,,,,,,,,,,,,,,,,,,,,,,,,,,8004,001,04,2021_Nov_05_1100,task-switching-replication,2021.2.3,60.01284874395658,
1,14,timed,04,standing,switch,congruant,dashed,triangle,blue,stimuli/dashed-rectangle.png,stimuli/blue-triangle.png,2,,,,,,,,,,,,,0,13,13,13,,,,,,,,,,,,,,,,,,,,,,,,,,,,,,,,,,,,,,,,,,,,,,,,,,,,,,,,,,,,,,,,,,,,,,,,,,,,,,,,,,,1636128205.0266511,,,,,,,,,,217.79422616958618,None,,,,,,,,,,,,,,,,,216.25171613693237,None,217.24174118041992,None,2,1,0.445037841796875,217.24174118041992,None,,,,,,,,,,,,,,,,,,,,,,,,,,8004,001,04,2021_Nov_05_1100,task-switching-replication,2021.2.3,60.01284874395658,
1,15,timed,04,standing,switch,incongruant,solid,square,yellow,stimuli/solid-rectangle.png,stimuli/yellow-square.png,1,,,,,,,,,,,,,0,14,14,14,,,,,,,,,,,,,,,,,,,,,,,,,,,,,,,,,,,,,,,,,,,,,,,,,,,,,,,,,,,,,,,,,,,,,,,,,,,,,,,,,,,1636128206.9178588,,,,,,,,,,219.68524599075317,None,,,,,,,,,,,,,,,,,218.02421712875366,None,219.01450514793396,None,1,1,0.5629448890686035,219.01450514793396,None,,,,,,,,,,,,,,,,,,,,,,,,,,8004,001,04,2021_Nov_05_1100,task-switching-replication,2021.2.3,60.01284874395658,
1,16,timed,04,standing,noswitch,incongruant,solid,triangle,blue,stimuli/solid-rectangle.png,stimuli/blue-triangle.png,2,,,,,,,,,,,,,0,15,15,15,,,,,,,,,,,,,,,,,,,,,,,,,,,,,,,,,,,,,,,,,,,,,,,,,,,,,,,,,,,,,,,,,,,,,,,,,,,,,,,,,,,1636128208.6312418,,,,,,,,,,221.39882111549377,None,,,,,,,,,,,,,,,,,219.91484999656677,None,220.90547704696655,None,2,1,0.37698912620544434,220.90547704696655,None,,,,,,,,,,,,,,,,,,,,,,,,,,8004,001,04,2021_Nov_05_1100,task-switching-replication,2021.2.3,60.01284874395658,
1,17,timed,04,standing,noswitch,congruant,solid,square,blue,stimuli/solid-rectangle.png,stimuli/blue-square.png,2,,,,,,,,,,,,,0,16,16,16,0,0,0,0,,,,,,,,,,,,,,,,,,,,,,,,,,,,,,,,,,,,,,,,,,,,,,,,,,,,,,,,,,,,,,,,,,,,,,,,,,,,,,,1636128210.3435671,,,,,,,,,,,,,,,,,,,,,,,,,,,,221.6282250881195,None,222.61815404891968,None,1,0,0.38877105712890625,222.61815404891968,None,223.08267450332642,224.10504603385925,223.11530709266663,None,,,,,,,,,,,,,,,,,,,,,,8004,001,04,2021_Nov_05_1100,task-switching-replication,2021.2.3,60.01284874395658,
1,17,timed,04,standing,noswitch,congruant,solid,square,blue,stimuli/solid-rectangle.png,stimuli/blue-square.png,2,,,,,,,,,,,,,0,16,16,16,,,,,,,,,,,,,,,,,,,,,,,,,,,,,,,,,,,,,,,,,,,,,,,,,,,,,,,,,,,,,,,,,,,,,,,,,,,,,,,,,,,,,,,,,,,,,228.1306381225586,None,,,,,,,,,,,,,,,,,,,,,,,,,,,,,,,,,,,,,,,,,,,,,,,,,,,8004,001,04,2021_Nov_05_1100,task-switching-replication,2021.2.3,60.01284874395658,
1,18,timed,04,standing,switch,incongruant,dashed,square,yellow,stimuli/dashed-rectangle.png,stimuli/yellow-square.png,1,,,,,,,,,,,,,0,17,17,17,,,,,,,,,,,,,,,,,,,,,,,,,,,,,,,,,,,,,,,,,,,,,,,,,,,,,,,,,,,,,,,,,,,,,,,,,,,,,,,,,,,1636128217.162656,,,,,,,,,,229.9303421974182,None,,,,,,,,,,,,,,,,,228.32781410217285,None,229.31830620765686,None,1,1,0.49483180046081543,229.31830620765686,None,,,,,,,,,,,,,,,,,,,,,,,,,,8004,001,04,2021_Nov_05_1100,task-switching-replication,2021.2.3,60.01284874395658,
1,19,timed,04,standing,switch,congruant,solid,triangle,yellow,stimuli/solid-rectangle.png,stimuli/yellow-triangle.png,1,,,,,,,,,,,,,0,18,18,18,0,0,0,0,,,,,,,,,,,,,,,,,,,,,,,,,,,,,,,,,,,,,,,,,,,,,,,,,,,,,,,,,,,,,,,,,,,,,,,,,,,,,,,1636128219.3516812,,,,,,,,,,,,,,,,,,,,,,,,,,,,230.15965008735657,None,231.149729013443,None,2,0,0.8301639556884766,231.149729013443,None,232.09088969230652,233.11366510391235,232.12307500839233,None,,,,,,,,,,,,,,,,,,,,,,8004,001,04,2021_Nov_05_1100,task-switching-replication,2021.2.3,60.01284874395658,
1,19,timed,04,standing,switch,congruant,solid,triangle,yellow,stimuli/solid-rectangle.png,stimuli/yellow-triangle.png,1,,,,,,,,,,,,,0,18,18,18,,,,,,,,,,,,,,,,,,,,,,,,,,,,,,,,,,,,,,,,,,,,,,,,,,,,,,,,,,,,,,,,,,,,,,,,,,,,,,,,,,,,,,,,,,,,,237.1389400959015,None,,,,,,,,,,,,,,,,,,,,,,,,,,,,,,,,,,,,,,,,,,,,,,,,,,,8004,001,04,2021_Nov_05_1100,task-switching-replication,2021.2.3,60.01284874395658,
1,20,timed,04,standing,noswitch,congruant,solid,square,yellow,stimuli/solid-rectangle.png,stimuli/yellow-square.png,1,,,,,,,,,,,,,0,19,19,19,,,,,,,,,,,,,,,,,,,,,,,,,,,,,,,,,,,,,,,,,,,,,,,,,,,,,,,,,,,,,,,,,,,,,,,,,,,,,,,,,,,1636128225.99199,,,,,,,,,,238.7596881389618,None,,,,,,,,,,,,,,,,,237.33583903312683,None,238.32551312446594,None,1,1,0.3203859329223633,238.32551312446594,None,,,,,,,,,,,,,,,,,,,,,,,,,,8004,001,04,2021_Nov_05_1100,task-switching-replication,2021.2.3,60.01284874395658,
1,21,timed,04,standing,switch,congruant,dashed,square,yellow,stimuli/dashed-rectangle.png,stimuli/yellow-square.png,1,,,,,,,,,,,,,0,20,20,20,,,,,,,,,,,,,,,,,,,,,,,,,,,,,,,,,,,,,,,,,,,,,,,,,,,,,,,,,,,,,,,,,,,,,,,,,,,,,,,,,,,1636128227.70508,,,,,,,,,,240.47250699996948,None,,,,,,,,,,,,,,,,,238.9892280101776,None,239.97936010360718,None,1,1,0.37415504455566406,239.97936010360718,None,,,,,,,,,,,,,,,,,,,,,,,,,,8004,001,04,2021_Nov_05_1100,task-switching-replication,2021.2.3,60.01284874395658,
1,22,timed,04,standing,noswitch,incongruant,dashed,triangle,yellow,stimuli/dashed-rectangle.png,stimuli/yellow-triangle.png,2,,,,,,,,,,,,,0,21,21,21,,,,,,,,,,,,,,,,,,,,,,,,,,,,,,,,,,,,,,,,,,,,,,,,,,,,,,,,,,,,,,,,,,,,,,,,,,,,,,,,,,,1636128229.834327,,,,,,,,,,242.6008641719818,None,,,,,,,,,,,,,,,,,240.70193910598755,None,241.69367909431458,None,2,1,0.7735002040863037,241.69367909431458,None,,,,,,,,,,,,,,,,,,,,,,,,,,8004,001,04,2021_Nov_05_1100,task-switching-replication,2021.2.3,60.01284874395658,
1,23,timed,04,standing,noswitch,congruant,dashed,triangle,yellow,stimuli/dashed-rectangle.png,stimuli/yellow-triangle.png,2,,,,,,,,,,,,,0,22,22,22,,,,,,,,,,,,,,,,,,,,,,,,,,,,,,,,,,,,,,,,,,,,,,,,,,,,,,,,,,,,,,,,,,,,,,,,,,,,,,,,,,,1636128231.5461361,,,,,,,,,,244.3136911392212,None,,,,,,,,,,,,,,,,,242.82986211776733,None,243.82035899162292,None,2,1,0.34833788871765137,243.82035899162292,None,,,,,,,,,,,,,,,,,,,,,,,,,,8004,001,04,2021_Nov_05_1100,task-switching-replication,2021.2.3,60.01284874395658,
1,24,timed,04,standing,switch,congruant,solid,square,blue,stimuli/solid-rectangle.png,stimuli/blue-square.png,2,,,,,,,,,,,,,0,23,23,23,0,0,0,0,,,,,,,,,,,,,,,,,,,,,,,,,,,,,,,,,,,,,,,,,,,,,,,,,,,,,,,,,,,,,,,,,,,,,,,,,,,,,,,1636128233.8515937,,,,,,,,,,,,,,,,,,,,,,,,,,,,244.5431411266327,None,245.53340816497803,None,1,0,0.9720649719238281,245.53340816497803,None,246.59071564674377,247.6138391494751,246.62408018112183,None,,,,,,,,,,,,,,,,,,,,,,8004,001,04,2021_Nov_05_1100,task-switching-replication,2021.2.3,60.01284874395658,
1,24,timed,04,standing,switch,congruant,solid,square,blue,stimuli/solid-rectangle.png,stimuli/blue-square.png,2,,,,,,,,,,,,,0,23,23,23,,,,,,,,,,,,,,,,,,,,,,,,,,,,,,,,,,,,,,,,,,,,,,,,,,,,,,,,,,,,,,,,,,,,,,,,,,,,,,,,,,,,,,,,,,,,,251.63964414596558,None,,,,,,,,,,,,,,,,,,,,,,,,,,,,,,,,,,,,,,,,,,,,,,,,,,,8004,001,04,2021_Nov_05_1100,task-switching-replication,2021.2.3,60.01284874395658,
1,1,experiment,04,standing,buffer,buffer,dashed,triangle,blue,stimuli/dashed-rectangle.png,stimuli/blue-triangle.png,2,,,,,,,,,,,,,,,,,,,,,,,,,0,0,0,0,0,0,0,0,0,0,0,0,,,,,,,,,251.85114812850952,None,2,5.097833156585693,251.85114812850952,None,,,,,,,,,,,,,,,,,,,,,,,,,,,,,,,,,,,,,,,,,,,,,,,,,1636128253.369562,,,,,,,,,,266.1369571685791,None,,,,,,,,,,,,,,,,,,,,,,,,,,,,,,257.03895115852356,None,1,6.157341003417969,257.03895115852356,None,263.32195711135864,None,1,0.8934371471405029,263.32195711135864,None,264.35342502593994,None,265.3438911437988,None,2,1,0.66292405128479,265.3438911437988,None,8004,001,04,2021_Nov_05_1100,task-switching-replication,2021.2.3,60.01284874395658,
1,2,experiment,04,standing,switch,congruant,solid,triangle,blue,stimuli/solid-rectangle.png,stimuli/blue-triangle.png,2,,,,,,,,,,,,,,,,,,,,,,,,,0,0,0,0,0,0,0,0,0,1,1,1,,,,,,,,,,,,,,,,,,,,,,,,,,,,,,,,,,,,,,,,,,,,,,,,,,,,,,,,,,,,,,,1636128255.6165988,,,,,,,,,,268.38426518440247,None,,,,,,,,,,,,,,,,,,,,,,,,,,,,,,,,,,,,,,,,,,266.36651611328125,None,267.3563480377197,None,2,1,0.9271910190582275,267.3563480377197,None,8004,001,04,2021_Nov_05_1100,task-switching-replication,2021.2.3,60.01284874395658,
1,3,experiment,04,standing,switch,incongruant,dashed,square,blue,stimuli/dashed-rectangle.png,stimuli/blue-square.png,1,,,,,,,,,,,,,,,,,,,,,,,,,0,0,0,0,0,0,0,0,0,2,2,2,,,,,,,,,,,,,,,,,,,,,,,,,,,,,,,,,,,,,,,,,,,,,,,,,,,,,,,,,,,,,,,1636128257.5093248,,,,,,,,,,270.27633714675903,None,,,,,,,,,,,,,,,,,,,,,,,,,,,,,,,,,,,,,,,,,,268.61393213272095,None,269.6038601398468,None,1,1,0.5337069034576416,269.6038601398468,None,8004,001,04,2021_Nov_05_1100,task-switching-replication,2021.2.3,60.01284874395658,
1,4,experiment,04,standing,noswitch,congruant,dashed,square,blue,stimuli/dashed-rectangle.png,stimuli/blue-square.png,1,,,,,,,,,,,,,,,,,,,,,,,,,0,0,0,0,0,0,0,0,0,3,3,3,,,,,,,,,,,,,,,,,,,,,,,,,,,,,,,,,,,,,,,,,,,,,,,,,,,,,,,,,,,,,,,1636128259.2813506,,,,,,,,,,272.0488910675049,None,,,,,,,,,,,,,,,,,,,,,,,,,,,,,,,,,,,,,,,,,,270.50561714172363,None,271.4952881336212,None,1,1,0.40305399894714355,271.4952881336212,None,8004,001,04,2021_Nov_05_1100,task-switching-replication,2021.2.3,60.01284874395658,
1,5,experiment,04,standing,noswitch,congruant,dashed,square,blue,stimuli/dashed-rectangle.png,stimuli/blue-square.png,1,,,,,,,,,,,,,,,,,,,,,,,,,0,0,0,0,0,0,0,0,0,4,4,4,,,,,,,,,,,,,,,,,,,,,,,,,,,,,,,,,,,,,,,,,,,,,,,,,,,,,,,,,,,,,,,1636128261.0541015,,,,,,,,,,273.8217170238495,None,,,,,,,,,,,,,,,,,,,,,,,,,,,,,,,,,,,,,,,,,,272.27841806411743,None,273.2692861557007,None,1,1,0.39602208137512207,273.2692861557007,None,8004,001,04,2021_Nov_05_1100,task-switching-replication,2021.2.3,60.01284874395658,
1,6,experiment,04,standing,noswitch,incongruant,dashed,triangle,yellow,stimuli/dashed-rectangle.png,stimuli/yellow-triangle.png,2,,,,,,,,,,,,,,,,,,,,,,,,,0,0,0,0,0,0,0,0,0,5,5,5,,,,,,,,,,,,,,,,,,,,,,,,,,,,,,,,,,,,,,,,,,,,,,,,,,,,,,,,,,,,,,,1636128263.2400188,,,,,,,,,,276.0069110393524,None,,,,,,,,,,,,,,,,,,,,,,,,,,,,,,,,,,,,,,,,,,274.0508990287781,None,275.04049801826477,None,2,1,0.8179831504821777,275.04049801826477,None,8004,001,04,2021_Nov_05_1100,task-switching-replication,2021.2.3,60.01284874395658,
1,7,experiment,04,standing,switch,congruant,solid,triangle,blue,stimuli/solid-rectangle.png,stimuli/blue-triangle.png,2,,,,,,,,,,,,,,,,,,,,,,,,,0,0,0,0,0,0,0,0,0,6,6,6,0,0,0,0,,,,,,,,,,,,,,,,,,,,,,,,,,,,,,,,,,,,,,,,,,,,,,,,,,,,,,,,,,,1636128265.0740614,,,,,,,,,,,,,,,,,,,,,,,,,,,,,,,,,,,,,277.81320357322693,278.8355870246887,277.84586000442505,None,,,,,,,,,,,,,276.2363750934601,None,277.2257649898529,None,1,0,0.48160314559936523,277.2257649898529,None,8004,001,04,2021_Nov_05_1100,task-switching-replication,2021.2.3,60.01284874395658,
1,7,experiment,04,standing,switch,congruant,solid,triangle,blue,stimuli/solid-rectangle.png,stimuli/blue-triangle.png,2,,,,,,,,,,,,,,,,,,,,,,,,,0,0,0,0,0,0,0,0,0,6,6,6,,,,,,,,,,,,,,,,,,,,,,,,,,,,,,,,,,,,,,,,,,,,,,,,,,,,,,,,,,,,,,,,,,,,,,,,,282.8618450164795,None,,,,,,,,,,,,,,,,,,,,,,,,,,,,,,,,,,,,,,,,,,,,,,,,,,,8004,001,04,2021_Nov_05_1100,task-switching-replication,2021.2.3,60.01284874395658,
1,8,experiment,04,standing,noswitch,incongruant,solid,square,yellow,stimuli/solid-rectangle.png,stimuli/yellow-square.png,1,,,,,,,,,,,,,,,,,,,,,,,,,0,0,0,0,0,0,0,0,0,7,7,7,,,,,,,,,,,,,,,,,,,,,,,,,,,,,,,,,,,,,,,,,,,,,,,,,,,,,,,,,,,,,,,1636128272.1306152,,,,,,,,,,284.8980510234833,None,,,,,,,,,,,,,,,,,,,,,,,,,,,,,,,,,,,,,,,,,,283.0591480731964,None,284.0491621494293,None,1,1,0.7192578315734863,284.0491621494293,None,8004,001,04,2021_Nov_05_1100,task-switching-replication,2021.2.3,60.01284874395658,
1,9,experiment,04,standing,noswitch,congruant,solid,square,yellow,stimuli/solid-rectangle.png,stimuli/yellow-square.png,1,,,,,,,,,,,,,,,,,,,,,,,,,0,0,0,0,0,0,0,0,0,8,8,8,,,,,,,,,,,,,,,,,,,,,,,,,,,,,,,,,,,,,,,,,,,,,,,,,,,,,,,,,,,,,,,1636128273.843971,,,,,,,,,,286.61288499832153,None,,,,,,,,,,,,,,,,,,,,,,,,,,,,,,,,,,,,,,,,,,285.1276500225067,None,286.1184000968933,None,1,1,0.38482093811035156,286.1184000968933,None,8004,001,04,2021_Nov_05_1100,task-switching-replication,2021.2.3,60.01284874395658,
1,10,experiment,04,standing,noswitch,congruant,solid,square,yellow,stimuli/solid-rectangle.png,stimuli/yellow-square.png,1,,,,,,,,,,,,,,,,,,,,,,,,,0,0,0,0,0,0,0,0,0,9,9,9,,,,,,,,,,,,,,,,,,,,,,,,,,,,,,,,,,,,,,,,,,,,,,,,,,,,,,,,,,,,,,,1636128275.6431973,,,,,,,,,,288.41090512275696,None,,,,,,,,,,,,,,,,,,,,,,,,,,,,,,,,,,,,,,,,,,286.8427770137787,None,287.8333830833435,None,1,1,0.4520289897918701,287.8333830833435,None,8004,001,04,2021_Nov_05_1100,task-switching-replication,2021.2.3,60.01284874395658,
1,11,experiment,04,standing,switch,congruant,dashed,square,yellow,stimuli/dashed-rectangle.png,stimuli/yellow-square.png,1,,,,,,,,,,,,,,,,,,,,,,,,,0,0,0,0,0,0,0,0,0,10,10,10,,,,,,,,,,,,,,,,,,,,,,,,,,,,,,,,,,,,,,,,,,,,,,,,,,,,,,,,,,,,,,,1636128277.4142559,,,,,,,,,,290.1816511154175,None,,,,,,,,,,,,,,,,,,,,,,,,,,,,,,,,,,,,,,,,,,288.64050221443176,None,289.6294991970062,None,1,1,0.4277060031890869,289.6294991970062,None,8004,001,04,2021_Nov_05_1100,task-switching-replication,2021.2.3,60.01284874395658,
1,12,experiment,04,standing,noswitch,incongruant,dashed,triangle,yellow,stimuli/dashed-rectangle.png,stimuli/yellow-triangle.png,2,,,,,,,,,,,,,,,,,,,,,,,,,0,0,0,0,0,0,0,0,0,11,11,11,,,,,,,,,,,,,,,,,,,,,,,,,,,,,,,,,,,,,,,,,,,,,,,,,,,,,,,,,,,,,,,1636128279.4270191,,,,,,,,,,292.19370317459106,None,,,,,,,,,,,,,,,,,,,,,,,,,,,,,,,,,,,,,,,,,,290.41105699539185,None,291.40104603767395,None,2,1,0.6644010543823242,291.40104603767395,None,8004,001,04,2021_Nov_05_1100,task-switching-replication,2021.2.3,60.01284874395658,
1,13,experiment,04,standing,switch,incongruant,solid,triangle,yellow,stimuli/solid-rectangle.png,stimuli/yellow-triangle.png,1,,,,,,,,,,,,,,,,,,,,,,,,,0,0,0,0,0,0,0,0,0,12,12,12,,,,,,,,,,,,,,,,,,,,,,,,,,,,,,,,,,,,,,,,,,,,,,,,,,,,,,,,,,,,,,,1636128281.378308,,,,,,,,,,294.1453502178192,None,,,,,,,,,,,,,,,,,,,,,,,,,,,,,,,,,,,,,,,,,,292.4232351779938,None,293.4132242202759,None,1,1,0.6030139923095703,293.4132242202759,None,8004,001,04,2021_Nov_05_1100,task-switching-replication,2021.2.3,60.01284874395658,
1,14,experiment,04,standing,noswitch,congruant,solid,square,yellow,stimuli/solid-rectangle.png,stimuli/yellow-square.png,1,,,,,,,,,,,,,,,,,,,,,,,,,0,0,0,0,0,0,0,0,0,13,13,13,,,,,,,,,,,,,,,,,,,,,,,,,,,,,,,,,,,,,,,,,,,,,,,,,,,,,,,,,,,,,,,1636128283.4458845,,,,,,,,,,296.21336603164673,None,,,,,,,,,,,,,,,,,,,,,,,,,,,,,,,,,,,,,,,,,,294.37536907196045,None,295.3645222187042,None,1,1,0.7136709690093994,295.3645222187042,None,8004,001,04,2021_Nov_05_1100,task-switching-replication,2021.2.3,60.01284874395658,
1,15,experiment,04,standing,noswitch,incongruant,solid,square,blue,stimuli/solid-rectangle.png,stimuli/blue-square.png,2,,,,,,,,,,,,,,,,,,,,,,,,,0,0,0,0,0,0,0,0,0,14,14,14,0,0,0,0,,,,,,,,,,,,,,,,,,,,,,,,,,,,,,,,,,,,,,,,,,,,,,,,,,,,,,,,,,,1636128285.337288,,,,,,,,,,,,,,,,,,,,,,,,,,,,,,,,,,,,,298.0763726234436,299.1011221408844,298.1097412109375,None,,,,,,,,,,,,,296.4430501461029,None,297.43345499038696,None,1,0,0.5337560176849365,297.43345499038696,None,8004,001,04,2021_Nov_05_1100,task-switching-replication,2021.2.3,60.01284874395658,
1,15,experiment,04,standing,noswitch,incongruant,solid,square,blue,stimuli/solid-rectangle.png,stimuli/blue-square.png,2,,,,,,,,,,,,,,,,,,,,,,,,,0,0,0,0,0,0,0,0,0,14,14,14,,,,,,,,,,,,,,,,,,,,,,,,,,,,,,,,,,,,,,,,,,,,,,,,,,,,,,,,,,,,,,,,,,,,,,,,,303.126522064209,None,,,,,,,,,,,,,,,,,,,,,,,,,,,,,,,,,,,,,,,,,,,,,,,,,,,8004,001,04,2021_Nov_05_1100,task-switching-replication,2021.2.3,60.01284874395658,
1,16,experiment,04,standing,noswitch,incongruant,solid,triangle,yellow,stimuli/solid-rectangle.png,stimuli/yellow-triangle.png,1,,,,,,,,,,,,,,,,,,,,,,,,,0,0,0,0,0,0,0,0,0,15,15,15,,,,,,,,,,,,,,,,,,,,,,,,,,,,,,,,,,,,,,,,,,,,,,,,,,,,,,,,,,,,,,,1636128292.9890292,,,,,,,,,,305.7565350532532,None,,,,,,,,,,,,,,,,,,,,,,,,,,,,,,,,,,,,,,,,,,303.32334303855896,None,304.3131651878357,None,1,1,1.2969889640808105,304.3131651878357,None,8004,001,04,2021_Nov_05_1100,task-switching-replication,2021.2.3,60.01284874395658,
1,17,experiment,04,standing,noswitch,incongruant,solid,square,blue,stimuli/solid-rectangle.png,stimuli/blue-square.png,2,,,,,,,,,,,,,,,,,,,,,,,,,0,0,0,0,0,0,0,0,0,16,16,16,0,0,0,0,,,,,,,,,,,,,,,,,,,,,,,,,,,,,,,,,,,,,,,,,,,,,,,,,,,,,,,,,,,1636128294.820889,,,,,,,,,,,,,,,,,,,,,,,,,,,,,,,,,,,,,307.5599796772003,308.5831570625305,307.5933611392975,None,,,,,,,,,,,,,305.9859571456909,None,306.97607016563416,None,1,0,0.4660940170288086,306.97607016563416,None,8004,001,04,2021_Nov_05_1100,task-switching-replication,2021.2.3,60.01284874395658,
1,17,experiment,04,standing,noswitch,incongruant,solid,square,blue,stimuli/solid-rectangle.png,stimuli/blue-square.png,2,,,,,,,,,,,,,,,,,,,,,,,,,0,0,0,0,0,0,0,0,0,16,16,16,,,,,,,,,,,,,,,,,,,,,,,,,,,,,,,,,,,,,,,,,,,,,,,,,,,,,,,,,,,,,,,,,,,,,,,,,312.610121011734,None,,,,,,,,,,,,,,,,,,,,,,,,,,,,,,,,,,,,,,,,,,,,,,,,,,,8004,001,04,2021_Nov_05_1100,task-switching-replication,2021.2.3,60.01284874395658,
1,18,experiment,04,standing,switch,congruant,dashed,triangle,yellow,stimuli/dashed-rectangle.png,stimuli/yellow-triangle.png,2,,,,,,,,,,,,,,,,,,,,,,,,,0,0,0,0,0,0,0,0,0,17,17,17,,,,,,,,,,,,,,,,,,,,,,,,,,,,,,,,,,,,,,,,,,,,,,,,,,,,,,,,,,,,,,,1636128301.5820935,,,,,,,,,,314.3489410877228,None,,,,,,,,,,,,,,,,,,,,,,,,,,,,,,,,,,,,,,,,,,312.80719208717346,None,313.796982049942,None,2,1,0.41828107833862305,313.796982049942,None,8004,001,04,2021_Nov_05_1100,task-switching-replication,2021.2.3,60.01284874395658,
1,19,experiment,04,standing,switch,incongruant,solid,square,yellow,stimuli/solid-rectangle.png,stimuli/yellow-square.png,1,,,,,,,,,,,,,,,,,,,,,,,,,0,0,0,0,0,0,0,0,0,18,18,18,,,,,,,,,,,,,,,,,,,,,,,,,,,,,,,,,,,,,,,,,,,,,,,,,,,,,,,,,,,,,,,1636128303.533439,,,,,,,,,,316.3002610206604,None,,,,,,,,,,,,,,,,,,,,,,,,,,,,,,,,,,,,,,,,,,314.5782961845398,None,315.56966400146484,None,1,1,0.5916228294372559,315.56966400146484,None,8004,001,04,2021_Nov_05_1100,task-switching-replication,2021.2.3,60.01284874395658,
1,20,experiment,04,standing,switch,congruant,dashed,square,blue,stimuli/dashed-rectangle.png,stimuli/blue-square.png,1,,,,,,,,,,,,,,,,,,,,,,,,,0,0,0,0,0,0,0,0,0,19,19,19,,,,,,,,,,,,,,,,,,,,,,,,,,,,,,,,,,,,,,,,,,,,,,,,,,,,,,,,,,,,,,,1636128305.305875,,,,,,,,,,318.13587403297424,None,,,,,,,,,,,,,,,,,,,,,,,,,,,,,,,,,,,,,,,,,,316.52994203567505,None,317.52027320861816,None,1,1,0.431926965713501,317.52027320861816,None,8004,001,04,2021_Nov_05_1100,task-switching-replication,2021.2.3,60.01284874395658,
1,21,experiment,04,standing,noswitch,congruant,dashed,square,yellow,stimuli/dashed-rectangle.png,stimuli/yellow-square.png,1,,,,,,,,,,,,,,,,,,,,,,,,,0,0,0,0,0,0,0,0,0,20,20,20,,,,,,,,,,,,,,,,,,,,,,,,,,,,,,,,,,,,,,,,,,,,,,,,,,,,,,,,,,,,,,,1636128307.0783744,,,,,,,,,,319.84591007232666,None,,,,,,,,,,,,,,,,,,,,,,,,,,,,,,,,,,,,,,,,,,318.30127906799316,None,319.2933621406555,None,1,1,0.411761999130249,319.2933621406555,None,8004,001,04,2021_Nov_05_1100,task-switching-replication,2021.2.3,60.01284874395658,
1,22,experiment,04,standing,noswitch,congruant,dashed,square,yellow,stimuli/dashed-rectangle.png,stimuli/yellow-square.png,1,,,,,,,,,,,,,,,,,,,,,,,,,0,0,0,0,0,0,0,0,0,21,21,21,,,,,,,,,,,,,,,,,,,,,,,,,,,,,,,,,,,,,,,,,,,,,,,,,,,,,,,,,,,,,,,1636128308.7311058,,,,,,,,,,321.4985589981079,None,,,,,,,,,,,,,,,,,,,,,,,,,,,,,,,,,,,,,,,,,,320.0753982067108,None,321.0647690296173,None,1,1,0.3123281002044678,321.0647690296173,None,8004,001,04,2021_Nov_05_1100,task-switching-replication,2021.2.3,60.01284874395658,
1,23,experiment,04,standing,noswitch,congruant,dashed,square,yellow,stimuli/dashed-rectangle.png,stimuli/yellow-square.png,1,,,,,,,,,,,,,,,,,,,,,,,,,0,0,0,0,0,0,0,0,0,22,22,22,,,,,,,,,,,,,,,,,,,,,,,,,,,,,,,,,,,,,,,,,,,,,,,,,,,,,,,,,,,,,,,1636128310.384976,,,,,,,,,,323.15247106552124,None,,,,,,,,,,,,,,,,,,,,,,,,,,,,,,,,,,,,,,,,,,321.72814106941223,None,322.7186760902405,None,1,1,0.3004469871520996,322.7186760902405,None,8004,001,04,2021_Nov_05_1100,task-switching-replication,2021.2.3,60.01284874395658,
1,24,experiment,04,standing,switch,incongruant,solid,square,blue,stimuli/solid-rectangle.png,stimuli/blue-square.png,2,,,,,,,,,,,,,,,,,,,,,,,,,0,0,0,0,0,0,0,0,0,23,23,23,0,0,0,0,,,,,,,,,,,,,,,,,,,,,,,,,,,,,,,,,,,,,,,,,,,,,,,,,,,,,,,,,,,1636128312.3356607,,,,,,,,,,,,,,,,,,,,,,,,,,,,,,,,,,,,,325.07473158836365,326.09757113456726,325.1078860759735,None,,,,,,,,,,,,,323.38203501701355,None,324.37258219718933,None,1,0,0.599484920501709,324.37258219718933,None,8004,001,04,2021_Nov_05_1100,task-switching-replication,2021.2.3,60.01284874395658,
1,24,experiment,04,standing,switch,incongruant,solid,square,blue,stimuli/solid-rectangle.png,stimuli/blue-square.png,2,,,,,,,,,,,,,,,,,,,,,,,,,0,0,0,0,0,0,0,0,0,23,23,23,,,,,,,,,,,,,,,,,,,,,,,,,,,,,,,,,,,,,,,,,,,,,,,,,,,,,,,,,,,,,,,,,,,,,,,,,330.12462306022644,None,,,,,,,,,,,,,,,,,,,,,,,,,,,,,,,,,,,,,,,,,,,,,,,,,,,8004,001,04,2021_Nov_05_1100,task-switching-replication,2021.2.3,60.01284874395658,
1,25,experiment,04,standing,noswitch,congruant,solid,square,blue,stimuli/solid-rectangle.png,stimuli/blue-square.png,2,,,,,,,,,,,,,,,,,,,,,,,,,0,0,0,0,0,0,0,0,0,24,24,24,0,0,0,0,,,,,,,,,,,,,,,,,,,,,,,,,,,,,,,,,,,,,,,,,,,,,,,,,,,,,,,,,,,1636128319.3334816,,,,,,,,,,,,,,,,,,,,,,,,,,,,,,,,,,,,,332.0725975036621,333.0962131023407,332.106085062027,None,,,,,,,,,,,,,330.3217821121216,None,331.3114640712738,None,1,0,0.6375119686126709,331.3114640712738,None,8004,001,04,2021_Nov_05_1100,task-switching-replication,2021.2.3,60.01284874395658,
1,25,experiment,04,standing,noswitch,congruant,solid,square,blue,stimuli/solid-rectangle.png,stimuli/blue-square.png,2,,,,,,,,,,,,,,,,,,,,,,,,,0,0,0,0,0,0,0,0,0,24,24,24,,,,,,,,,,,,,,,,,,,,,,,,,,,,,,,,,,,,,,,,,,,,,,,,,,,,,,,,,,,,,,,,,,,,,,,,,337.12329721450806,None,,,,,,,,,,,,,,,,,,,,,,,,,,,,,,,,,,,,,,,,,,,,,,,,,,,8004,001,04,2021_Nov_05_1100,task-switching-replication,2021.2.3,60.01284874395658,
1,26,experiment,04,standing,switch,congruant,dashed,triangle,blue,stimuli/dashed-rectangle.png,stimuli/blue-triangle.png,2,,,,,,,,,,,,,,,,,,,,,,,,,0,0,0,0,0,0,0,0,0,25,25,25,,,,,,,,,,,,,,,,,,,,,,,,,,,,,,,,,,,,,,,,,,,,,,,,,,,,,,,,,,,,,,,1636128326.2159712,,,,,,,,,,338.98288917541504,None,,,,,,,,,,,,,,,,,,,,,,,,,,,,,,,,,,,,,,,,,,337.32046699523926,None,338.3111171722412,None,2,1,0.5179049968719482,338.3111171722412,None,8004,001,04,2021_Nov_05_1100,task-switching-replication,2021.2.3,60.01284874395658,
1,27,experiment,04,standing,switch,incongruant,solid,triangle,yellow,stimuli/solid-rectangle.png,stimuli/yellow-triangle.png,1,,,,,,,,,,,,,,,,,,,,,,,,,0,0,0,0,0,0,0,0,0,26,26,26,0,0,0,0,,,,,,,,,,,,,,,,,,,,,,,,,,,,,,,,,,,,,,,,,,,,,,,,,,,,,,,,,,,1636128328.3439648,,,,,,,,,,,,,,,,,,,,,,,,,,,,,,,,,,,,,341.083060503006,342.10660314559937,341.1164870262146,None,,,,,,,,,,,,,339.21230006217957,None,340.202525138855,None,2,0,0.7714979648590088,340.202525138855,None,8004,001,04,2021_Nov_05_1100,task-switching-replication,2021.2.3,60.01284874395658,
1,27,experiment,04,standing,switch,incongruant,solid,triangle,yellow,stimuli/solid-rectangle.png,stimuli/yellow-triangle.png,1,,,,,,,,,,,,,,,,,,,,,,,,,0,0,0,0,0,0,0,0,0,26,26,26,,,,,,,,,,,,,,,,,,,,,,,,,,,,,,,,,,,,,,,,,,,,,,,,,,,,,,,,,,,,,,,,,,,,,,,,,346.1323790550232,None,,,,,,,,,,,,,,,,,,,,,,,,,,,,,,,,,,,,,,,,,,,,,,,,,,,8004,001,04,2021_Nov_05_1100,task-switching-replication,2021.2.3,60.01284874395658,
1,28,experiment,04,standing,switch,congruant,dashed,square,yellow,stimuli/dashed-rectangle.png,stimuli/yellow-square.png,1,,,,,,,,,,,,,,,,,,,,,,,,,0,0,0,0,0,0,0,0,0,27,27,27,,,,,,,,,,,,,,,,,,,,,,,,,,,,,,,,,,,,,,,,,,,,,,,,,,,,,,,,,,,,,,,1636128335.2249653,,,,,,,,,,347.9918670654297,None,,,,,,,,,,,,,,,,,,,,,,,,,,,,,,,,,,,,,,,,,,346.3295271396637,None,347.3205351829529,None,1,1,0.5278329849243164,347.3205351829529,None,8004,001,04,2021_Nov_05_1100,task-switching-replication,2021.2.3,60.01284874395658,
1,29,experiment,04,standing,switch,incongruant,solid,square,blue,stimuli/solid-rectangle.png,stimuli/blue-square.png,2,,,,,,,,,,,,,,,,,,,,,,,,,0,0,0,0,0,0,0,0,0,28,28,28,0,0,0,0,,,,,,,,,,,,,,,,,,,,,,,,,,,,,,,,,,,,,,,,,,,,,,,,,,,,,,,,,,,1636128336.9972677,,,,,,,,,,,,,,,,,,,,,,,,,,,,,,,,,,,,,349.73634362220764,350.75954818725586,349.7698450088501,None,,,,,,,,,,,,,348.22155117988586,None,349.21250009536743,None,1,0,0.4413330554962158,349.21250009536743,None,8004,001,04,2021_Nov_05_1100,task-switching-replication,2021.2.3,60.01284874395658,
1,29,experiment,04,standing,switch,incongruant,solid,square,blue,stimuli/solid-rectangle.png,stimuli/blue-square.png,2,,,,,,,,,,,,,,,,,,,,,,,,,0,0,0,0,0,0,0,0,0,28,28,28,,,,,,,,,,,,,,,,,,,,,,,,,,,,,,,,,,,,,,,,,,,,,,,,,,,,,,,,,,,,,,,,,,,,,,,,,354.7873191833496,None,,,,,,,,,,,,,,,,,,,,,,,,,,,,,,,,,,,,,,,,,,,,,,,,,,,8004,001,04,2021_Nov_05_1100,task-switching-replication,2021.2.3,60.01284874395658,
1,30,experiment,04,standing,noswitch,incongruant,solid,triangle,yellow,stimuli/solid-rectangle.png,stimuli/yellow-triangle.png,1,,,,,,,,,,,,,,,,,,,,,,,,,0,0,0,0,0,0,0,0,0,29,29,29,,,,,,,,,,,,,,,,,,,,,,,,,,,,,,,,,,,,,,,,,,,,,,,,,,,,,,,,,,,,,,,1636128343.9969482,,,,,,,,,,356.76463198661804,None,,,,,,,,,,,,,,,,,,,,,,,,,,,,,,,,,,,,,,,,,,354.984393119812,None,355.97467613220215,None,1,1,0.6461291313171387,355.97467613220215,None,8004,001,04,2021_Nov_05_1100,task-switching-replication,2021.2.3,60.01284874395658,
1,31,experiment,04,standing,switch,incongruant,dashed,triangle,blue,stimuli/dashed-rectangle.png,stimuli/blue-triangle.png,2,,,,,,,,,,,,,,,,,,,,,,,,,0,0,0,0,0,0,0,0,0,30,30,30,,,,,,,,,,,,,,,,,,,,,,,,,,,,,,,,,,,,,,,,,,,,,,,,,,,,,,,,,,,,,,,1636128345.9476683,,,,,,,,,,358.7145621776581,None,,,,,,,,,,,,,,,,,,,,,,,,,,,,,,,,,,,,,,,,,,356.99434304237366,None,357.98442816734314,None,2,1,0.5958840847015381,357.98442816734314,None,8004,001,04,2021_Nov_05_1100,task-switching-replication,2021.2.3,60.01284874395658,
1,32,experiment,04,standing,noswitch,incongruant,dashed,square,yellow,stimuli/dashed-rectangle.png,stimuli/yellow-square.png,1,,,,,,,,,,,,,,,,,,,,,,,,,0,0,0,0,0,0,0,0,0,31,31,31,,,,,,,,,,,,,,,,,,,,,,,,,,,,,,,,,,,,,,,,,,,,,,,,,,,,,,,,,,,,,,,1636128347.723819,,,,,,,,,,360.4906451702118,None,,,,,,,,,,,,,,,,,,,,,,,,,,,,,,,,,,,,,,,,,,358.94385504722595,None,359.9336850643158,None,1,1,0.433337926864624,359.9336850643158,None,8004,001,04,2021_Nov_05_1100,task-switching-replication,2021.2.3,60.01284874395658,
1,33,experiment,04,standing,switch,incongruant,solid,triangle,blue,stimuli/solid-rectangle.png,stimuli/blue-triangle.png,2,,,,,,,,,,,,,,,,,,,,,,,,,0,0,0,0,0,0,0,0,0,32,32,32,,,,,,,,,,,,,,,,,,,,,,,,,,,,,,,,,,,,,,,,,,,,,,,,,,,,,,,,,,,,,,,1636128349.6149018,,,,,,,,,,362.3819901943207,None,,,,,,,,,,,,,,,,,,,,,,,,,,,,,,,,,,,,,,,,,,360.72016620635986,None,361.710547208786,None,2,1,0.5371909141540527,361.710547208786,None,8004,001,04,2021_Nov_05_1100,task-switching-replication,2021.2.3,60.01284874395658,
1,34,experiment,04,standing,noswitch,congruant,solid,square,blue,stimuli/solid-rectangle.png,stimuli/blue-square.png,2,,,,,,,,,,,,,,,,,,,,,,,,,0,0,0,0,0,0,0,0,0,33,33,33,0,0,0,0,,,,,,,,,,,,,,,,,,,,,,,,,,,,,,,,,,,,,,,,,,,,,,,,,,,,,,,,,,,1636128351.628931,,,,,,,,,,,,,,,,,,,,,,,,,,,,,,,,,,,,,364.3680775165558,365.38976311683655,364.40073013305664,None,,,,,,,,,,,,,362.61154317855835,None,363.6024441719055,None,1,0,0.6346390247344971,363.6024441719055,None,8004,001,04,2021_Nov_05_1100,task-switching-replication,2021.2.3,60.01284874395658,
1,34,experiment,04,standing,noswitch,congruant,solid,square,blue,stimuli/solid-rectangle.png,stimuli/blue-square.png,2,,,,,,,,,,,,,,,,,,,,,,,,,0,0,0,0,0,0,0,0,0,33,33,33,,,,,,,,,,,,,,,,,,,,,,,,,,,,,,,,,,,,,,,,,,,,,,,,,,,,,,,,,,,,,,,,,,,,,,,,,369.41589999198914,None,,,,,,,,,,,,,,,,,,,,,,,,,,,,,,,,,,,,,,,,,,,,,,,,,,,8004,001,04,2021_Nov_05_1100,task-switching-replication,2021.2.3,60.01284874395658,
1,35,experiment,04,standing,switch,congruant,dashed,triangle,blue,stimuli/dashed-rectangle.png,stimuli/blue-triangle.png,2,,,,,,,,,,,,,,,,,,,,,,,,,0,0,0,0,0,0,0,0,0,34,34,34,,,,,0,0,0,0,,,,,,,,,,,,,,,,,,,,,,,,,,,,,,,,,,,,,,,,,,,,,,,,,,,,,,,1636128358.5684483,,,,,,,,,,,,371.307564496994,372.33103919029236,371.3412170410156,None,,,,,,,,,,,,,,,,,,,,,,,,,,,,,,,,,,,,,,369.6136200428009,None,370.60546112060547,None,1,0,0.590425968170166,370.60546112060547,None,8004,001,04,2021_Nov_05_1100,task-switching-replication,2021.2.3,60.01284874395658,
1,35,experiment,04,standing,switch,congruant,dashed,triangle,blue,stimuli/dashed-rectangle.png,stimuli/blue-triangle.png,2,,,,,,,,,,,,,,,,,,,,,,,,,0,0,0,0,0,0,0,0,0,34,34,34,,,,,,,,,,,,,,,,,,,,,,,,,,,,,,,,,,,,,,,,,,,,,,,,,,,,,,,,,,,,,,,,,,,,,,,,,376.3565571308136,None,,,,,,,,,,,,,,,,,,,,,,,,,,,,,,,,,,,,,,,,,,,,,,,,,,,8004,001,04,2021_Nov_05_1100,task-switching-replication,2021.2.3,60.01284874395658,
1,36,experiment,04,standing,switch,incongruant,solid,triangle,yellow,stimuli/solid-rectangle.png,stimuli/yellow-triangle.png,1,,,,,,,,,,,,,,,,,,,,,,,,,0,0,0,0,0,0,0,0,0,35,35,35,0,0,0,0,,,,,,,,,,,,,,,,,,,,,,,,,,,,,,,,,,,,,,,,,,,,,,,,,,,,,,,,,,,1636128365.388087,,,,,,,,,,,,,,,,,,,,,,,,,,,,,,,,,,,,,378.12682247161865,379.15002608299255,378.16018414497375,None,,,,,,,,,,,,,376.5531630516052,None,377.5433180332184,None,2,0,0.5027289390563965,377.5433180332184,None,8004,001,04,2021_Nov_05_1100,task-switching-replication,2021.2.3,60.01284874395658,
1,36,experiment,04,standing,switch,incongruant,solid,triangle,yellow,stimuli/solid-rectangle.png,stimuli/yellow-triangle.png,1,,,,,,,,,,,,,,,,,,,,,,,,,0,0,0,0,0,0,0,0,0,35,35,35,,,,,,,,,,,,,,,,,,,,,,,,,,,,,,,,,,,,,,,,,,,,,,,,,,,,,,,,,,,,,,,,,,,,,,,,,383.1759521961212,None,,,,,,,,,,,,,,,,,,,,,,,,,,,,,,,,,,,,,,,,,,,,,,,,,,,8004,001,04,2021_Nov_05_1100,task-switching-replication,2021.2.3,60.01284874395658,
1,37,experiment,04,standing,switch,incongruant,dashed,triangle,blue,stimuli/dashed-rectangle.png,stimuli/blue-triangle.png,2,,,,,,,,,,,,,,,,,,,,,,,,,0,0,0,0,0,0,0,0,0,36,36,36,,,,,,,,,,,,,,,,,,,,,,,,,,,,,,,,,,,,,,,,,,,,,,,,,,,,,,,,,,,,,,,1636128372.0883188,,,,,,,,,,384.85614013671875,None,,,,,,,,,,,,,,,,,,,,,,,,,,,,,,,,,,,,,,,,,,383.3732931613922,None,384.3628001213074,None,2,1,0.3755300045013428,384.3628001213074,None,8004,001,04,2021_Nov_05_1100,task-switching-replication,2021.2.3,60.01284874395658,
1,38,experiment,04,standing,switch,incongruant,solid,triangle,yellow,stimuli/solid-rectangle.png,stimuli/yellow-triangle.png,1,,,,,,,,,,,,,,,,,,,,,,,,,0,0,0,0,0,0,0,0,0,37,37,37,,,,,,,,,,,,,,,,,,,,,,,,,,,,,,,,,,,,,,,,,,,,,,,,,,,,,,,,,,,,,,,1636128373.9798236,,,,,,,,,,386.746778011322,None,,,,,,,,,,,,,,,,,,,,,,,,,,,,,,,,,,,,,,,,,,385.08522605895996,None,386.07460021972656,None,1,1,0.5134031772613525,386.07460021972656,None,8004,001,04,2021_Nov_05_1100,task-switching-replication,2021.2.3,60.01284874395658,
1,39,experiment,04,standing,switch,incongruant,dashed,triangle,blue,stimuli/dashed-rectangle.png,stimuli/blue-triangle.png,2,,,,,,,,,,,,,,,,,,,,,,,,,0,0,0,0,0,0,0,0,0,38,38,38,,,,,,,,,,,,,,,,,,,,,,,,,,,,,,,,,,,,,,,,,,,,,,,,,,,,,,,,,,,,,,,1636128375.9901757,,,,,,,,,,388.75727915763855,None,,,,,,,,,,,,,,,,,,,,,,,,,,,,,,,,,,,,,,,,,,386.9765040874481,None,387.9666130542755,None,2,1,0.6417310237884521,387.9666130542755,None,8004,001,04,2021_Nov_05_1100,task-switching-replication,2021.2.3,60.01284874395658,
1,40,experiment,04,standing,noswitch,congruant,dashed,triangle,yellow,stimuli/dashed-rectangle.png,stimuli/yellow-triangle.png,2,,,,,,,,,,,,,,,,,,,,,,,,,0,0,0,0,0,0,0,0,0,39,39,39,,,,,,,,,,,,,,,,,,,,,,,,,,,,,,,,,,,,,,,,,,,,,,,,,,,,,,,,,,,,,,,1636128377.7022657,,,,,,,,,,390.4697880744934,None,,,,,,,,,,,,,,,,,,,,,,,,,,,,,,,,,,,,,,,,,,388.9867010116577,None,389.9766101837158,None,2,1,0.3632528781890869,389.9766101837158,None,8004,001,04,2021_Nov_05_1100,task-switching-replication,2021.2.3,60.01284874395658,
1,41,experiment,04,standing,noswitch,congruant,dashed,triangle,yellow,stimuli/dashed-rectangle.png,stimuli/yellow-triangle.png,2,,,,,,,,,,,,,,,,,,,,,,,,,0,0,0,0,0,0,0,0,0,40,40,40,,,,,,,,,,,,,,,,,,,,,,,,,,,,,,,,,,,,,,,,,,,,,,,,,,,,,,,,,,,,,,,1636128379.474341,,,,,,,,,,392.2419581413269,None,,,,,,,,,,,,,,,,,,,,,,,,,,,,,,,,,,,,,,,,,,390.6992230415344,None,391.68946504592896,None,2,1,0.4103868007659912,391.68946504592896,None,8004,001,04,2021_Nov_05_1100,task-switching-replication,2021.2.3,60.01284874395658,
1,42,experiment,04,standing,noswitch,incongruant,dashed,square,blue,stimuli/dashed-rectangle.png,stimuli/blue-square.png,1,,,,,,,,,,,,,,,,,,,,,,,,,0,0,0,0,0,0,0,0,0,41,41,41,,,,,,,,,,,,,,,,,,,,,,,,,,,,,,,,,,,,,,,,,,,,,,,,,,,,,,,,,,,,,,,1636128381.2480118,,,,,,,,,,394.0148961544037,None,,,,,,,,,,,,,,,,,,,,,,,,,,,,,,,,,,,,,,,,,,392.47131299972534,None,393.4611871242523,None,1,1,0.42490696907043457,393.4611871242523,None,8004,001,04,2021_Nov_05_1100,task-switching-replication,2021.2.3,60.01284874395658,
1,43,experiment,04,standing,switch,congruant,solid,square,yellow,stimuli/solid-rectangle.png,stimuli/yellow-square.png,1,,,,,,,,,,,,,,,,,,,,,,,,,0,0,0,0,0,0,0,0,0,42,42,42,,,,,,,,,,,,,,,,,,,,,,,,,,,,,,,,,,,,,,,,,,,,,,,,,,,,,,,,,,,,,,,1636128383.3166764,,,,,,,,,,396.08427715301514,None,,,,,,,,,,,,,,,,,,,,,,,,,,,,,,,,,,,,,,,,,,394.2445340156555,None,395.2353529930115,None,1,1,0.7092781066894531,395.2353529930115,None,8004,001,04,2021_Nov_05_1100,task-switching-replication,2021.2.3,60.01284874395658,
1,44,experiment,04,standing,switch,incongruant,dashed,triangle,blue,stimuli/dashed-rectangle.png,stimuli/blue-triangle.png,2,,,,,,,,,,,,,,,,,,,,,,,,,0,0,0,0,0,0,0,0,0,43,43,43,,,,,,,,,,,,,,,,,,,,,,,,,,,,,,,,,,,,,,,,,,,,,,,,,,,,,,,,,,,,,,,1636128385.0290325,,,,,,,,,,397.7966320514679,None,,,,,,,,,,,,,,,,,,,,,,,,,,,,,,,,,,,,,,,,,,396.3135471343994,None,397.3036410808563,None,2,1,0.3899240493774414,397.3036410808563,None,8004,001,04,2021_Nov_05_1100,task-switching-replication,2021.2.3,60.01284874395658,
1,45,experiment,04,standing,switch,congruant,solid,triangle,blue,stimuli/solid-rectangle.png,stimuli/blue-triangle.png,2,,,,,,,,,,,,,,,,,,,,,,,,,0,0,0,0,0,0,0,0,0,44,44,44,0,0,0,0,,,,,,,,,,,,,,,,,,,,,,,,,,,,,,,,,,,,,,,,,,,,,,,,,,,,,,,,,,,1636128387.039553,,,,,,,,,,,,,,,,,,,,,,,,,,,,,,,,,,,,,399.77876448631287,400.8011300563812,399.8110280036926,None,,,,,,,,,,,,,398.0258982181549,None,399.01653599739075,None,1,0,0.651116132736206,399.01653599739075,None,8004,001,04,2021_Nov_05_1100,task-switching-replication,2021.2.3,60.01284874395658,
1,45,experiment,04,standing,switch,congruant,solid,triangle,blue,stimuli/solid-rectangle.png,stimuli/blue-triangle.png,2,,,,,,,,,,,,,,,,,,,,,,,,,0,0,0,0,0,0,0,0,0,44,44,44,,,,,,,,,,,,,,,,,,,,,,,,,,,,,,,,,,,,,,,,,,,,,,,,,,,,,,,,,,,,,,,,,,,,,,,,,404.83938121795654,None,,,,,,,,,,,,,,,,,,,,,,,,,,,,,,,,,,,,,,,,,,,,,,,,,,,8004,001,04,2021_Nov_05_1100,task-switching-replication,2021.2.3,60.01284874395658,
1,46,experiment,04,standing,noswitch,congruant,solid,triangle,blue,stimuli/solid-rectangle.png,stimuli/blue-triangle.png,2,,,,,,,,,,,,,,,,,,,,,,,,,0,0,0,0,0,0,0,0,0,45,45,45,,,,,,,,,,,,,,,,,,,,,,,,,,,,,,,,,,,,,,,,,,,,,,,,,,,,,,,,,,,,,,,1636128394.1172638,,,,,,,,,,406.8843560218811,None,,,,,,,,,,,,,,,,,,,,,,,,,,,,,,,,,,,,,,,,,,405.0367751121521,None,406.029687166214,None,2,1,0.7253110408782959,406.029687166214,None,8004,001,04,2021_Nov_05_1100,task-switching-replication,2021.2.3,60.01284874395658,
1,47,experiment,04,standing,noswitch,congruant,solid,triangle,blue,stimuli/solid-rectangle.png,stimuli/blue-triangle.png,2,,,,,,,,,,,,,,,,,,,,,,,,,0,0,0,0,0,0,0,0,0,46,46,46,,,,,,,,,,,,,,,,,,,,,,,,,,,,,,,,,,,,,,,,,,,,,,,,,,,,,,,,,,,,,,,1636128395.888667,,,,,,,,,,408.65635919570923,None,,,,,,,,,,,,,,,,,,,,,,,,,,,,,,,,,,,,,,,,,,407.11376118659973,None,408.10378313064575,None,2,1,0.4409329891204834,408.10378313064575,None,8004,001,04,2021_Nov_05_1100,task-switching-replication,2021.2.3,60.01284874395658,
1,48,experiment,04,standing,switch,incongruant,dashed,square,blue,stimuli/dashed-rectangle.png,stimuli/blue-square.png,1,,,,,,,,,,,,,,,,,,,,,,,,,0,0,0,0,0,0,0,0,0,47,47,47,,,,,0,0,0,0,,,,,,,,,,,,,,,,,,,,,,,,,,,,,,,,,,,,,,,,,,,,,,,,,,,,,,,1636128397.6027613,,,,,,,,,,,,410.3418686389923,411.3658502101898,410.37558007240295,None,,,,,,,,,,,,,,,,,,,,,,,,,,,,,,,,,,,,,,408.8858721256256,None,409.87729001045227,None,2,0,0.38106489181518555,409.87729001045227,None,8004,001,04,2021_Nov_05_1100,task-switching-replication,2021.2.3,60.01284874395658,
1,48,experiment,04,standing,switch,incongruant,dashed,square,blue,stimuli/dashed-rectangle.png,stimuli/blue-square.png,1,,,,,,,,,,,,,,,,,,,,,,,,,0,0,0,0,0,0,0,0,0,47,47,47,,,,,,,,,,,,,,,,,,,,,,,,,,,,,,,,,,,,,,,,,,,,,,,,,,,,,,,,,,,,,,,,,,,,,,,,,415.3914701938629,None,,,,,,,,,,,,,,,,,,,,,,,,,,,,,,,,,,,,,,,,,,,,,,,,,,,8004,001,04,2021_Nov_05_1100,task-switching-replication,2021.2.3,60.01284874395658,
1,49,experiment,04,standing,noswitch,incongruant,dashed,triangle,yellow,stimuli/dashed-rectangle.png,stimuli/yellow-triangle.png,2,,,,,,,,,,,,,,,,,,,,,,,,,0,0,0,0,0,0,0,0,0,48,48,48,,,,,,,,,,,,,,,,,,,,,,,,,,,,,,,,,,,,,,,,,,,,,,,,,,,,,,,,,,,,,,,1636128404.3626754,,,,,,,,,,417.1304030418396,None,,,,,,,,,,,,,,,,,,,,,,,,,,,,,,,,,,,,,,,,,,415.58821511268616,None,416.577938079834,None,2,1,0.4496440887451172,416.577938079834,None,8004,001,04,2021_Nov_05_1100,task-switching-replication,2021.2.3,60.01284874395658,
,,,04,,,,,,,,,,,,,,,,,,,,,,,,,,,,,,,,,,0,0,0,0,0,0,0,0,,,,,,,,,,,,,,,,,,,,,,,,,,,,,,,,,,,,,,,,,,,,,,,,,,,,,,,,,,,,,,,,,,,,,,,,,,,,,,,,,,,,,,,,,,,,,,,,,,,,,,,,,,,,,,,,,,,,,,,,,,,,,,,,,8004,001,04,2021_Nov_05_1100,task-switching-replication,2021.2.3,60.01284874395658,
2,1,experiment,04,standing,buffer,buffer,dashed,square,blue,stimuli/dashed-rectangle.png,stimuli/blue-square.png,1,,,,,,,,,,,,,,,,,,,,,,,,,0,0,0,0,1,0,1,0,0,0,0,0,,,,,,,,,,,,,,,,,,,,,,,,,,,,,,,,,,,,,,,,,,,,,,,,,,,,,,,,,,,,,,,1636128418.2909408,,,,,,,,,,431.0590879917145,None,,,,,,,,,,,,,,,,,,,,,,,,,,,,,,417.36061906814575,None,2,2.1481289863586426,417.36061906814575,None,419.62073802948,None,1,9.71799087524414,419.62073802948,None,429.51465606689453,None,430.5057280063629,None,1,1,0.41476893424987793,430.5057280063629,None,8004,001,04,2021_Nov_05_1100,task-switching-replication,2021.2.3,60.01284874395658,
2,2,experiment,04,standing,switch,incongruant,solid,square,blue,stimuli/solid-rectangle.png,stimuli/blue-square.png,2,,,,,,,,,,,,,,,,,,,,,,,,,0,0,0,0,1,0,1,0,0,1,1,1,,,,,,,,,,,,,,,,,,,,,,,,,,,,,,,,,,,,,,,,,,,,,,,,,,,,,,,,,,,,,,,1636128420.2421606,,,,,,,,,,433.0097990036011,None,,,,,,,,,,,,,,,,,,,,,,,,,,,,,,,,,,,,,,,,,,431.28870010375977,None,432.27935218811035,None,2,1,0.6198549270629883,432.27935218811035,None,8004,001,04,2021_Nov_05_1100,task-switching-replication,2021.2.3,60.01284874395658,
2,3,experiment,04,standing,noswitch,congruant,solid,triangle,blue,stimuli/solid-rectangle.png,stimuli/blue-triangle.png,2,,,,,,,,,,,,,,,,,,,,,,,,,0,0,0,0,1,0,1,0,0,2,2,2,,,,,,,,,,,,,,,,,,,,,,,,,,,,,,,,,,,,,,,,,,,,,,,,,,,,,,,,,,,,,,,1636128422.1936064,,,,,,,,,,434.9612650871277,None,,,,,,,,,,,,,,,,,,,,,,,,,,,,,,,,,,,,,,,,,,433.23886919021606,None,434.23046612739563,None,2,1,0.6170880794525146,434.23046612739563,None,8004,001,04,2021_Nov_05_1100,task-switching-replication,2021.2.3,60.01284874395658,
2,4,experiment,04,standing,noswitch,incongruant,solid,triangle,yellow,stimuli/solid-rectangle.png,stimuli/yellow-triangle.png,1,,,,,,,,,,,,,,,,,,,,,,,,,0,0,0,0,1,0,1,0,0,3,3,3,,,,,,,,,,,,,,,,,,,,,,,,,,,,,,,,,,,,,,,,,,,,,,,,,,,,,,,,,,,,,,,1636128424.2642252,,,,,,,,,,437.0311381816864,None,,,,,,,,,,,,,,,,,,,,,,,,,,,,,,,,,,,,,,,,,,435.1907072067261,None,436.1815490722656,None,1,1,0.7060611248016357,436.1815490722656,None,8004,001,04,2021_Nov_05_1100,task-switching-replication,2021.2.3,60.01284874395658,
2,5,experiment,04,standing,switch,congruant,dashed,square,yellow,stimuli/dashed-rectangle.png,stimuli/yellow-square.png,1,,,,,,,,,,,,,,,,,,,,,,,,,0,0,0,0,1,0,1,0,0,4,4,4,,,,,,,,,,,,,,,,,,,,,,,,,,,,,,,,,,,,,,,,,,,,,,,,,,,,,,,,,,,,,,,1636128426.1553223,,,,,,,,,,438.9228820800781,None,,,,,,,,,,,,,,,,,,,,,,,,,,,,,,,,,,,,,,,,,,437.26146721839905,None,438.25158309936523,None,1,1,0.5187780857086182,438.25158309936523,None,8004,001,04,2021_Nov_05_1100,task-switching-replication,2021.2.3,60.01284874395658,
2,6,experiment,04,standing,switch,incongruant,solid,triangle,blue,stimuli/solid-rectangle.png,stimuli/blue-triangle.png,2,,,,,,,,,,,,,,,,,,,,,,,,,0,0,0,0,1,0,1,0,0,5,5,5,,,,,,,,,,,,,,,,,,,,,,,,,,,,,,,,,,,,,,,,,,,,,,,,,,,,,,,,,,,,,,,1636128427.9897394,,,,,,,,,,440.75655221939087,None,,,,,,,,,,,,,,,,,,,,,,,,,,,,,,,,,,,,,,,,,,439.152437210083,None,440.1444721221924,None,2,1,0.46823692321777344,440.1444721221924,None,8004,001,04,2021_Nov_05_1100,task-switching-replication,2021.2.3,60.01284874395658,
2,7,experiment,04,standing,switch,incongruant,dashed,square,yellow,stimuli/dashed-rectangle.png,stimuli/yellow-square.png,1,,,,,,,,,,,,,,,,,,,,,,,,,0,0,0,0,1,0,1,0,0,6,6,6,,,,,,,,,,,,,,,,,,,,,,,,,,,,,,,,,,,,,,,,,,,,,,,,,,,,,,,,,,,,,,,1636128429.9389234,,,,,,,,,,442.70576310157776,None,,,,,,,,,,,,,,,,,,,,,,,,,,,,,,,,,,,,,,,,,,440.9862720966339,None,441.97572207450867,None,1,1,0.5663340091705322,441.97572207450867,None,8004,001,04,2021_Nov_05_1100,task-switching-replication,2021.2.3,60.01284874395658,
2,8,experiment,04,standing,noswitch,congruant,dashed,square,yellow,stimuli/dashed-rectangle.png,stimuli/yellow-square.png,1,,,,,,,,,,,,,,,,,,,,,,,,,0,0,0,0,1,0,1,0,0,7,7,7,,,,,,,,,,,,,,,,,,,,,,,,,,,,,,,,,,,,,,,,,,,,,,,,,,,,,,,,,,,,,,,1636128431.8288558,,,,,,,,,,444.59645414352417,None,,,,,,,,,,,,,,,,,,,,,,,,,,,,,,,,,,,,,,,,,,442.93529319763184,None,443.9254901409149,None,1,1,0.5678389072418213,443.9254901409149,None,8004,001,04,2021_Nov_05_1100,task-switching-replication,2021.2.3,60.01284874395658,
2,9,experiment,04,standing,switch,incongruant,solid,square,blue,stimuli/solid-rectangle.png,stimuli/blue-square.png,2,,,,,,,,,,,,,,,,,,,,,,,,,0,0,0,0,1,0,1,0,0,8,8,8,,,,,,,,,,,,,,,,,,,,,,,,,,,,,,,,,,,,,,,,,,,,,,,,,,,,,,,,,,,,,,,1636128433.7202747,,,,,,,,,,446.48714303970337,None,,,,,,,,,,,,,,,,,,,,,,,,,,,,,,,,,,,,,,,,,,444.825697183609,None,445.8157432079315,None,2,1,0.5330169200897217,445.8157432079315,None,8004,001,04,2021_Nov_05_1100,task-switching-replication,2021.2.3,60.01284874395658,
2,10,experiment,04,standing,noswitch,incongruant,solid,square,yellow,stimuli/solid-rectangle.png,stimuli/yellow-square.png,1,,,,,,,,,,,,,,,,,,,,,,,,,0,0,0,0,1,0,1,0,0,9,9,9,,,,,,,,,,,,,,,,,,,,,,,,,,,,,,,,,,,,,,,,,,,,,,,,,,,,,,,,,,,,,,,1636128435.7344015,,,,,,,,,,448.5013520717621,None,,,,,,,,,,,,,,,,,,,,,,,,,,,,,,,,,,,,,,,,,,446.7169120311737,None,447.70756220817566,None,1,1,0.6599228382110596,447.70756220817566,None,8004,001,04,2021_Nov_05_1100,task-switching-replication,2021.2.3,60.01284874395658,
2,11,experiment,04,standing,noswitch,incongruant,solid,square,blue,stimuli/solid-rectangle.png,stimuli/blue-square.png,2,,,,,,,,,,,,,,,,,,,,,,,,,0,0,0,0,1,0,1,0,0,10,10,10,,,,,,,,,,,,,,,,,,,,,,,,,,,,,,,,,,,,,,,,,,,,,,,,,,,,,,,,,,,,,,,1636128437.7450926,,,,,,,,,,450.51186418533325,None,,,,,,,,,,,,,,,,,,,,,,,,,,,,,,,,,,,,,,,,,,448.73063802719116,None,449.72037720680237,None,2,1,0.6425130367279053,449.72037720680237,None,8004,001,04,2021_Nov_05_1100,task-switching-replication,2021.2.3,60.01284874395658,
2,12,experiment,04,standing,switch,congruant,dashed,triangle,yellow,stimuli/dashed-rectangle.png,stimuli/yellow-triangle.png,2,,,,,,,,,,,,,,,,,,,,,,,,,0,0,0,0,1,0,1,0,0,11,11,11,,,,,,,,,,,,,,,,,,,,,,,,,,,,,,,,,,,,,,,,,,,,,,,,,,,,,,,,,,,,,,,1636128439.4573224,,,,,,,,,,452.2249791622162,None,,,,,,,,,,,,,,,,,,,,,,,,,,,,,,,,,,,,,,,,,,450.7414810657501,None,451.73164319992065,None,2,1,0.3957819938659668,451.73164319992065,None,8004,001,04,2021_Nov_05_1100,task-switching-replication,2021.2.3,60.01284874395658,
2,13,experiment,04,standing,noswitch,congruant,dashed,triangle,yellow,stimuli/dashed-rectangle.png,stimuli/yellow-triangle.png,2,,,,,,,,,,,,,,,,,,,,,,,,,0,0,0,0,1,0,1,0,0,12,12,12,,,,,,,,,,,,,,,,,,,,,,,,,,,,,,,,,,,,,,,,,,,,,,,,,,,,,,,,,,,,,,,1636128441.4075024,,,,,,,,,,454.1751310825348,None,,,,,,,,,,,,,,,,,,,,,,,,,,,,,,,,,,,,,,,,,,452.4543790817261,None,453.4445421695709,None,2,1,0.5749478340148926,453.4445421695709,None,8004,001,04,2021_Nov_05_1100,task-switching-replication,2021.2.3,60.01284874395658,
2,14,experiment,04,standing,switch,incongruant,solid,triangle,yellow,stimuli/solid-rectangle.png,stimuli/yellow-triangle.png,1,,,,,,,,,,,,,,,,,,,,,,,,,0,0,0,0,1,0,1,0,0,13,13,13,0,0,0,0,,,,,,,,,,,,,,,,,,,,,,,,,,,,,,,,,,,,,,,,,,,,,,,,,,,,,,,,,,,1636128443.3573759,,,,,,,,,,,,,,,,,,,,,,,,,,,,,,,,,,,,,456.0964436531067,457.1199700832367,456.129812002182,None,,,,,,,,,,,,,454.40437602996826,None,455.39455008506775,None,2,0,0.6009330749511719,455.39455008506775,None,8004,001,04,2021_Nov_05_1100,task-switching-replication,2021.2.3,60.01284874395658,
2,14,experiment,04,standing,switch,incongruant,solid,triangle,yellow,stimuli/solid-rectangle.png,stimuli/yellow-triangle.png,1,,,,,,,,,,,,,,,,,,,,,,,,,0,0,0,0,1,0,1,0,0,13,13,13,,,,,,,,,,,,,,,,,,,,,,,,,,,,,,,,,,,,,,,,,,,,,,,,,,,,,,,,,,,,,,,,,,,,,,,,,461.1445200443268,None,,,,,,,,,,,,,,,,,,,,,,,,,,,,,,,,,,,,,,,,,,,,,,,,,,,8004,001,04,2021_Nov_05_1100,task-switching-replication,2021.2.3,60.01284874395658,
2,15,experiment,04,standing,switch,congruant,dashed,square,yellow,stimuli/dashed-rectangle.png,stimuli/yellow-square.png,1,,,,,,,,,,,,,,,,,,,,,,,,,0,0,0,0,1,0,1,0,0,14,14,14,,,,,,,,,,,,,,,,,,,,,,,,,,,,,,,,,,,,,,,,,,,,,,,,,,,,,,,,,,,,,,,1636128450.1792533,,,,,,,,,,462.94606614112854,None,,,,,,,,,,,,,,,,,,,,,,,,,,,,,,,,,,,,,,,,,,461.34151005744934,None,462.3315830230713,None,1,1,0.4656980037689209,462.3315830230713,None,8004,001,04,2021_Nov_05_1100,task-switching-replication,2021.2.3,60.01284874395658,
2,16,experiment,04,standing,noswitch,incongruant,dashed,triangle,blue,stimuli/dashed-rectangle.png,stimuli/blue-triangle.png,2,,,,,,,,,,,,,,,,,,,,,,,,,0,0,0,0,1,0,1,0,0,15,15,15,,,,,,,,,,,,,,,,,,,,,,,,,,,,,,,,,,,,,,,,,,,,,,,,,,,,,,,,,,,,,,,1636128452.425555,,,,,,,,,,465.1929450035095,None,,,,,,,,,,,,,,,,,,,,,,,,,,,,,,,,,,,,,,,,,,463.1759841442108,None,464.1662302017212,None,2,1,0.9106450080871582,464.1662302017212,None,8004,001,04,2021_Nov_05_1100,task-switching-replication,2021.2.3,60.01284874395658,
2,17,experiment,04,standing,noswitch,congruant,dashed,triangle,blue,stimuli/dashed-rectangle.png,stimuli/blue-triangle.png,2,,,,,,,,,,,,,,,,,,,,,,,,,0,0,0,0,1,0,1,0,0,16,16,16,,,,,,,,,,,,,,,,,,,,,,,,,,,,,,,,,,,,,,,,,,,,,,,,,,,,,,,,,,,,,,,1636128454.1968265,,,,,,,,,,466.96429204940796,None,,,,,,,,,,,,,,,,,,,,,,,,,,,,,,,,,,,,,,,,,,465.4225912094116,None,466.4118740558624,None,2,1,0.4154219627380371,466.4118740558624,None,8004,001,04,2021_Nov_05_1100,task-switching-replication,2021.2.3,60.01284874395658,
2,18,experiment,04,standing,switch,congruant,solid,triangle,blue,stimuli/solid-rectangle.png,stimuli/blue-triangle.png,2,,,,,,,,,,,,,,,,,,,,,,,,,0,0,0,0,1,0,1,0,0,17,17,17,,,,,,,,,,,,,,,,,,,,,,,,,,,,,,,,,,,,,,,,,,,,,,,,,,,,,,,,,,,,,,,1636128455.9108174,,,,,,,,,,468.6783471107483,None,,,,,,,,,,,,,,,,,,,,,,,,,,,,,,,,,,,,,,,,,,467.193834066391,None,468.1842391490936,None,2,1,0.3520989418029785,468.1842391490936,None,8004,001,04,2021_Nov_05_1100,task-switching-replication,2021.2.3,60.01284874395658,
2,19,experiment,04,standing,noswitch,congruant,solid,square,blue,stimuli/solid-rectangle.png,stimuli/blue-square.png,2,,,,,,,,,,,,,,,,,,,,,,,,,0,0,0,0,1,0,1,0,0,18,18,18,0,0,0,0,,,,,,,,,,,,,,,,,,,,,,,,,,,,,,,,,,,,,,,,,,,,,,,,,,,,,,,,,,,1636128457.9794588,,,,,,,,,,,,,,,,,,,,,,,,,,,,,,,,,,,,,470.7186255455017,471.7406311035156,470.7509150505066,None,,,,,,,,,,,,,468.90771412849426,None,469.89756512641907,None,1,0,0.7194359302520752,469.89756512641907,None,8004,001,04,2021_Nov_05_1100,task-switching-replication,2021.2.3,60.01284874395658,
2,19,experiment,04,standing,noswitch,congruant,solid,square,blue,stimuli/solid-rectangle.png,stimuli/blue-square.png,2,,,,,,,,,,,,,,,,,,,,,,,,,0,0,0,0,1,0,1,0,0,18,18,18,,,,,,,,,,,,,,,,,,,,,,,,,,,,,,,,,,,,,,,,,,,,,,,,,,,,,,,,,,,,,,,,,,,,,,,,,475.76663398742676,None,,,,,,,,,,,,,,,,,,,,,,,,,,,,,,,,,,,,,,,,,,,,,,,,,,,8004,001,04,2021_Nov_05_1100,task-switching-replication,2021.2.3,60.01284874395658,
2,20,experiment,04,standing,switch,incongruant,dashed,square,blue,stimuli/dashed-rectangle.png,stimuli/blue-square.png,1,,,,,,,,,,,,,,,,,,,,,,,,,0,0,0,0,1,0,1,0,0,19,19,19,,,,,,,,,,,,,,,,,,,,,,,,,,,,,,,,,,,,,,,,,,,,,,,,,,,,,,,,,,,,,,,1636128464.9167447,,,,,,,,,,477.68426609039307,None,,,,,,,,,,,,,,,,,,,,,,,,,,,,,,,,,,,,,,,,,,475.96371817588806,None,476.953675031662,None,1,1,0.5974240303039551,476.953675031662,None,8004,001,04,2021_Nov_05_1100,task-switching-replication,2021.2.3,60.01284874395658,
2,21,experiment,04,standing,switch,congruant,solid,triangle,yellow,stimuli/solid-rectangle.png,stimuli/yellow-triangle.png,1,,,,,,,,,,,,,,,,,,,,,,,,,0,0,0,0,1,0,1,0,0,20,20,20,0,0,0,0,,,,,,,,,,,,,,,,,,,,,,,,,,,,,,,,,,,,,,,,,,,,,,,,,,,,,,,,,,,1636128466.8673384,,,,,,,,,,,,,,,,,,,,,,,,,,,,,,,,,,,,,479.6064884662628,480.6308569908142,479.6408681869507,None,,,,,,,,,,,,,477.91369700431824,None,478.9045510292053,None,2,0,0.6235690116882324,478.9045510292053,None,8004,001,04,2021_Nov_05_1100,task-switching-replication,2021.2.3,60.01284874395658,
2,21,experiment,04,standing,switch,congruant,solid,triangle,yellow,stimuli/solid-rectangle.png,stimuli/yellow-triangle.png,1,,,,,,,,,,,,,,,,,,,,,,,,,0,0,0,0,1,0,1,0,0,20,20,20,,,,,,,,,,,,,,,,,,,,,,,,,,,,,,,,,,,,,,,,,,,,,,,,,,,,,,,,,,,,,,,,,,,,,,,,,484.6548352241516,None,,,,,,,,,,,,,,,,,,,,,,,,,,,,,,,,,,,,,,,,,,,,,,,,,,,8004,001,04,2021_Nov_05_1100,task-switching-replication,2021.2.3,60.01284874395658,
2,22,experiment,04,standing,switch,incongruant,dashed,triangle,yellow,stimuli/dashed-rectangle.png,stimuli/yellow-triangle.png,2,,,,,,,,,,,,,,,,,,,,,,,,,0,0,0,0,1,0,1,0,0,21,21,21,,,,,0,0,0,0,,,,,,,,,,,,,,,,,,,,,,,,,,,,,,,,,,,,,,,,,,,,,,,,,,,,,,,1636128473.8667383,,,,,,,,,,,,486.60593461990356,487.6290280818939,486.638797044754,None,,,,,,,,,,,,,,,,,,,,,,,,,,,,,,,,,,,,,,484.8517642021179,None,485.84264612197876,None,1,0,0.6519641876220703,485.84264612197876,None,8004,001,04,2021_Nov_05_1100,task-switching-replication,2021.2.3,60.01284874395658,
2,22,experiment,04,standing,switch,incongruant,dashed,triangle,yellow,stimuli/dashed-rectangle.png,stimuli/yellow-triangle.png,2,,,,,,,,,,,,,,,,,,,,,,,,,0,0,0,0,1,0,1,0,0,21,21,21,,,,,,,,,,,,,,,,,,,,,,,,,,,,,,,,,,,,,,,,,,,,,,,,,,,,,,,,,,,,,,,,,,,,,,,,,491.6570541858673,None,,,,,,,,,,,,,,,,,,,,,,,,,,,,,,,,,,,,,,,,,,,,,,,,,,,8004,001,04,2021_Nov_05_1100,task-switching-replication,2021.2.3,60.01284874395658,
2,23,experiment,04,standing,noswitch,congruant,dashed,triangle,blue,stimuli/dashed-rectangle.png,stimuli/blue-triangle.png,2,,,,,,,,,,,,,,,,,,,,,,,,,0,0,0,0,1,0,1,0,0,22,22,22,,,,,,,,,,,,,,,,,,,,,,,,,,,,,,,,,,,,,,,,,,,,,,,,,,,,,,,,,,,,,,,1636128480.693389,,,,,,,,,,493.4602801799774,None,,,,,,,,,,,,,,,,,,,,,,,,,,,,,,,,,,,,,,,,,,491.8546140193939,None,492.8457441329956,None,2,1,0.47588491439819336,492.8457441329956,None,8004,001,04,2021_Nov_05_1100,task-switching-replication,2021.2.3,60.01284874395658,
2,24,experiment,04,standing,switch,incongruant,solid,square,yellow,stimuli/solid-rectangle.png,stimuli/yellow-square.png,1,,,,,,,,,,,,,,,,,,,,,,,,,0,0,0,0,1,0,1,0,0,23,23,23,,,,,,,,,,,,,,,,,,,,,,,,,,,,,,,,,,,,,,,,,,,,,,,,,,,,,,,,,,,,,,,1636128482.5869606,,,,,,,,,,495.3539881706238,None,,,,,,,,,,,,,,,,,,,,,,,,,,,,,,,,,,,,,,,,,,493.6898720264435,None,494.6797511577606,None,1,1,0.5353550910949707,494.6797511577606,None,8004,001,04,2021_Nov_05_1100,task-switching-replication,2021.2.3,60.01284874395658,
2,25,experiment,04,standing,noswitch,incongruant,solid,triangle,blue,stimuli/solid-rectangle.png,stimuli/blue-triangle.png,2,,,,,,,,,,,,,,,,,,,,,,,,,0,0,0,0,1,0,1,0,0,24,24,24,,,,,,,,,,,,,,,,,,,,,,,,,,,,,,,,,,,,,,,,,,,,,,,,,,,,,,,,,,,,,,,1636128484.5380063,,,,,,,,,,497.3048861026764,None,,,,,,,,,,,,,,,,,,,,,,,,,,,,,,,,,,,,,,,,,,495.5833320617676,None,496.5735561847687,None,2,1,0.6020069122314453,496.5735561847687,None,8004,001,04,2021_Nov_05_1100,task-switching-replication,2021.2.3,60.01284874395658,
2,26,experiment,04,standing,noswitch,congruant,solid,square,blue,stimuli/solid-rectangle.png,stimuli/blue-square.png,2,,,,,,,,,,,,,,,,,,,,,,,,,0,0,0,0,1,0,1,0,0,25,25,25,0,0,0,0,,,,,,,,,,,,,,,,,,,,,,,,,,,,,,,,,,,,,,,,,,,,,,,,,,,,,,,,,,,1636128486.4323833,,,,,,,,,,,,,,,,,,,,,,,,,,,,,,,,,,,,,499.17153668403625,500.19364404678345,499.20388412475586,None,,,,,,,,,,,,,497.53498101234436,None,498.52593302726746,None,1,0,0.5395951271057129,498.52593302726746,None,8004,001,04,2021_Nov_05_1100,task-switching-replication,2021.2.3,60.01284874395658,
2,26,experiment,04,standing,noswitch,congruant,solid,square,blue,stimuli/solid-rectangle.png,stimuli/blue-square.png,2,,,,,,,,,,,,,,,,,,,,,,,,,0,0,0,0,1,0,1,0,0,25,25,25,,,,,,,,,,,,,,,,,,,,,,,,,,,,,,,,,,,,,,,,,,,,,,,,,,,,,,,,,,,,,,,,,,,,,,,,,504.220388174057,None,,,,,,,,,,,,,,,,,,,,,,,,,,,,,,,,,,,,,,,,,,,,,,,,,,,8004,001,04,2021_Nov_05_1100,task-switching-replication,2021.2.3,60.01284874395658,
2,27,experiment,04,standing,switch,congruant,dashed,triangle,yellow,stimuli/dashed-rectangle.png,stimuli/yellow-triangle.png,2,,,,,,,,,,,,,,,,,,,,,,,,,0,0,0,0,1,0,1,0,0,26,26,26,,,,,0,0,0,0,,,,,,,,,,,,,,,,,,,,,,,,,,,,,,,,,,,,,,,,,,,,,,,,,,,,,,,1636128493.3107634,,,,,,,,,,,,506.0498194694519,507.0734050273895,506.08342719078064,None,,,,,,,,,,,,,,,,,,,,,,,,,,,,,,,,,,,,,,504.41703820228577,None,505.4071362018585,None,1,0,0.54793381690979,505.4071362018585,None,8004,001,04,2021_Nov_05_1100,task-switching-replication,2021.2.3,60.01284874395658,
2,27,experiment,04,standing,switch,congruant,dashed,triangle,yellow,stimuli/dashed-rectangle.png,stimuli/yellow-triangle.png,2,,,,,,,,,,,,,,,,,,,,,,,,,0,0,0,0,1,0,1,0,0,26,26,26,,,,,,,,,,,,,,,,,,,,,,,,,,,,,,,,,,,,,,,,,,,,,,,,,,,,,,,,,,,,,,,,,,,,,,,,,511.10047817230225,None,,,,,,,,,,,,,,,,,,,,,,,,,,,,,,,,,,,,,,,,,,,,,,,,,,,8004,001,04,2021_Nov_05_1100,task-switching-replication,2021.2.3,60.01284874395658,
2,28,experiment,04,standing,noswitch,congruant,dashed,triangle,blue,stimuli/dashed-rectangle.png,stimuli/blue-triangle.png,2,,,,,,,,,,,,,,,,,,,,,,,,,0,0,0,0,1,0,1,0,0,27,27,27,,,,,,,,,,,,,,,,,,,,,,,,,,,,,,,,,,,,,,,,,,,,,,,,,,,,,,,,,,,,,,,1636128500.1337814,,,,,,,,,,512.9005701541901,None,,,,,,,,,,,,,,,,,,,,,,,,,,,,,,,,,,,,,,,,,,511.2979121208191,None,512.2885692119598,None,2,1,0.48848891258239746,512.2885692119598,None,8004,001,04,2021_Nov_05_1100,task-switching-replication,2021.2.3,60.01284874395658,
2,29,experiment,04,standing,switch,incongruant,solid,square,yellow,stimuli/solid-rectangle.png,stimuli/yellow-square.png,1,,,,,,,,,,,,,,,,,,,,,,,,,0,0,0,0,1,0,1,0,0,28,28,28,,,,,,,,,,,,,,,,,,,,,,,,,,,,,,,,,,,,,,,,,,,,,,,,,,,,,,,,,,,,,,,1636128502.2632437,,,,,,,,,,515.0299282073975,None,,,,,,,,,,,,,,,,,,,,,,,,,,,,,,,,,,,,,,,,,,513.1308591365814,None,514.1215510368347,None,1,1,0.7599790096282959,514.1215510368347,None,8004,001,04,2021_Nov_05_1100,task-switching-replication,2021.2.3,60.01284874395658,
2,30,experiment,04,standing,switch,incongruant,dashed,triangle,yellow,stimuli/dashed-rectangle.png,stimuli/yellow-triangle.png,2,,,,,,,,,,,,,,,,,,,,,,,,,0,0,0,0,1,0,1,0,0,29,29,29,,,,,,,,,,,,,,,,,,,,,,,,,,,,,,,,,,,,,,,,,,,,,,,,,,,,,,,,,,,,,,,1636128504.211977,,,,,,,,,,516.978746175766,None,,,,,,,,,,,,,,,,,,,,,,,,,,,,,,,,,,,,,,,,,,515.2596092224121,None,516.2494730949402,None,2,1,0.5804910659790039,516.2494730949402,None,8004,001,04,2021_Nov_05_1100,task-switching-replication,2021.2.3,60.01284874395658,
2,31,experiment,04,standing,noswitch,incongruant,dashed,square,blue,stimuli/dashed-rectangle.png,stimuli/blue-square.png,1,,,,,,,,,,,,,,,,,,,,,,,,,0,0,0,0,1,0,1,0,0,30,30,30,,,,,,,,,,,,,,,,,,,,,,,,,,,,,,,,,,,,,,,,,,,,,,,,,,,,,,,,,,,,,,,1636128506.1625059,,,,,,,,,,518.9303870201111,None,,,,,,,,,,,,,,,,,,,,,,,,,,,,,,,,,,,,,,,,,,517.2091331481934,None,518.1994700431824,None,1,1,0.6153562068939209,518.1994700431824,None,8004,001,04,2021_Nov_05_1100,task-switching-replication,2021.2.3,60.01284874395658,
2,32,experiment,04,standing,switch,congruant,solid,triangle,yellow,stimuli/solid-rectangle.png,stimuli/yellow-triangle.png,1,,,,,,,,,,,,,,,,,,,,,,,,,0,0,0,0,1,0,1,0,0,31,31,31,0,0,0,0,,,,,,,,,,,,,,,,,,,,,,,,,,,,,,,,,,,,,,,,,,,,,,,,,,,,,,,,,,,1636128508.1136444,,,,,,,,,,,,,,,,,,,,,,,,,,,,,,,,,,,,,520.8528475761414,521.8751821517944,520.8851251602173,None,,,,,,,,,,,,,519.1600081920624,None,520.1504790782928,None,2,0,0.5764470100402832,520.1504790782928,None,8004,001,04,2021_Nov_05_1100,task-switching-replication,2021.2.3,60.01284874395658,
2,32,experiment,04,standing,switch,congruant,solid,triangle,yellow,stimuli/solid-rectangle.png,stimuli/yellow-triangle.png,1,,,,,,,,,,,,,,,,,,,,,,,,,0,0,0,0,1,0,1,0,0,31,31,31,,,,,,,,,,,,,,,,,,,,,,,,,,,,,,,,,,,,,,,,,,,,,,,,,,,,,,,,,,,,,,,,,,,,,,,,,525.9023830890656,None,,,,,,,,,,,,,,,,,,,,,,,,,,,,,,,,,,,,,,,,,,,,,,,,,,,8004,001,04,2021_Nov_05_1100,task-switching-replication,2021.2.3,60.01284874395658,
2,33,experiment,04,standing,noswitch,congruant,solid,square,yellow,stimuli/solid-rectangle.png,stimuli/yellow-square.png,1,,,,,,,,,,,,,,,,,,,,,,,,,0,0,0,0,1,0,1,0,0,32,32,32,,,,,,,,,,,,,,,,,,,,,,,,,,,,,,,,,,,,,,,,,,,,,,,,,,,,,,,,,,,,,,,1636128515.0587878,,,,,,,,,,527.8254950046539,None,,,,,,,,,,,,,,,,,,,,,,,,,,,,,,,,,,,,,,,,,,526.0995981693268,None,527.0906410217285,None,1,1,0.61138916015625,527.0906410217285,None,8004,001,04,2021_Nov_05_1100,task-switching-replication,2021.2.3,60.01284874395658,
2,34,experiment,04,standing,switch,incongruant,dashed,triangle,yellow,stimuli/dashed-rectangle.png,stimuli/yellow-triangle.png,2,,,,,,,,,,,,,,,,,,,,,,,,,0,0,0,0,1,0,1,0,0,33,33,33,,,,,0,0,0,0,,,,,,,,,,,,,,,,,,,,,,,,,,,,,,,,,,,,,,,,,,,,,,,,,,,,,,,1636128517.1273196,,,,,,,,,,,,529.8664364814758,530.890664100647,529.9001500606537,None,,,,,,,,,,,,,,,,,,,,,,,,,,,,,,,,,,,,,,528.0550811290741,None,529.0455641746521,None,1,0,0.7122540473937988,529.0455641746521,None,8004,001,04,2021_Nov_05_1100,task-switching-replication,2021.2.3,60.01284874395658,
2,34,experiment,04,standing,switch,incongruant,dashed,triangle,yellow,stimuli/dashed-rectangle.png,stimuli/yellow-triangle.png,2,,,,,,,,,,,,,,,,,,,,,,,,,0,0,0,0,1,0,1,0,0,33,33,33,,,,,,,,,,,,,,,,,,,,,,,,,,,,,,,,,,,,,,,,,,,,,,,,,,,,,,,,,,,,,,,,,,,,,,,,,534.9163980484009,None,,,,,,,,,,,,,,,,,,,,,,,,,,,,,,,,,,,,,,,,,,,,,,,,,,,8004,001,04,2021_Nov_05_1100,task-switching-replication,2021.2.3,60.01284874395658,
2,35,experiment,04,standing,noswitch,incongruant,dashed,square,yellow,stimuli/dashed-rectangle.png,stimuli/yellow-square.png,1,,,,,,,,,,,,,,,,,,,,,,,,,0,0,0,0,1,0,1,0,0,34,34,34,,,,,,,,,,,,,,,,,,,,,,,,,,,,,,,,,,,,,,,,,,,,,,,,,,,,,,,,,,,,,,,1636128523.8880765,,,,,,,,,,536.6560711860657,None,,,,,,,,,,,,,,,,,,,,,,,,,,,,,,,,,,,,,,,,,,535.1134610176086,None,536.1034631729126,None,1,1,0.45238804817199707,536.1034631729126,None,8004,001,04,2021_Nov_05_1100,task-switching-replication,2021.2.3,60.01284874395658,
2,36,experiment,04,standing,switch,congruant,solid,triangle,yellow,stimuli/solid-rectangle.png,stimuli/yellow-triangle.png,1,,,,,,,,,,,,,,,,,,,,,,,,,0,0,0,0,1,0,1,0,0,35,35,35,0,0,0,0,,,,,,,,,,,,,,,,,,,,,,,,,,,,,,,,,,,,,,,,,,,,,,,,,,,,,,,,,,,1636128525.9026084,,,,,,,,,,,,,,,,,,,,,,,,,,,,,,,,,,,,,538.6418144702911,539.6640510559082,538.6747481822968,None,,,,,,,,,,,,,536.8868432044983,None,537.8765962123871,None,2,0,0.6489248275756836,537.8765962123871,None,8004,001,04,2021_Nov_05_1100,task-switching-replication,2021.2.3,60.01284874395658,
2,36,experiment,04,standing,switch,congruant,solid,triangle,yellow,stimuli/solid-rectangle.png,stimuli/yellow-triangle.png,1,,,,,,,,,,,,,,,,,,,,,,,,,0,0,0,0,1,0,1,0,0,35,35,35,,,,,,,,,,,,,,,,,,,,,,,,,,,,,,,,,,,,,,,,,,,,,,,,,,,,,,,,,,,,,,,,,,,,,,,,,543.6901152133942,None,,,,,,,,,,,,,,,,,,,,,,,,,,,,,,,,,,,,,,,,,,,,,,,,,,,8004,001,04,2021_Nov_05_1100,task-switching-replication,2021.2.3,60.01284874395658,
2,37,experiment,04,standing,noswitch,incongruant,solid,square,blue,stimuli/solid-rectangle.png,stimuli/blue-square.png,2,,,,,,,,,,,,,,,,,,,,,,,,,0,0,0,0,1,0,1,0,0,36,36,36,0,0,0,0,,,,,,,,,,,,,,,,,,,,,,,,,,,,,,,,,,,,,,,,,,,,,,,,,,,,,,,,,,,1636128532.7261736,,,,,,,,,,,,,,,,,,,,,,,,,,,,,,,,,,,,,545.4653775691986,546.4877700805664,545.4977819919586,None,,,,,,,,,,,,,543.8879590034485,None,544.8784911632538,None,1,0,0.46065402030944824,544.8784911632538,None,8004,001,04,2021_Nov_05_1100,task-switching-replication,2021.2.3,60.01284874395658,
2,37,experiment,04,standing,noswitch,incongruant,solid,square,blue,stimuli/solid-rectangle.png,stimuli/blue-square.png,2,,,,,,,,,,,,,,,,,,,,,,,,,0,0,0,0,1,0,1,0,0,36,36,36,,,,,,,,,,,,,,,,,,,,,,,,,,,,,,,,,,,,,,,,,,,,,,,,,,,,,,,,,,,,,,,,,,,,,,,,,550.5137231349945,None,,,,,,,,,,,,,,,,,,,,,,,,,,,,,,,,,,,,,,,,,,,,,,,,,,,8004,001,04,2021_Nov_05_1100,task-switching-replication,2021.2.3,60.01284874395658,
2,38,experiment,04,standing,noswitch,congruant,solid,triangle,blue,stimuli/solid-rectangle.png,stimuli/blue-triangle.png,2,,,,,,,,,,,,,,,,,,,,,,,,,0,0,0,0,1,0,1,0,0,37,37,37,,,,,,,,,,,,,,,,,,,,,,,,,,,,,,,,,,,,,,,,,,,,,,,,,,,,,,,,,,,,,,,1636128539.6633146,,,,,,,,,,552.4303200244904,None,,,,,,,,,,,,,,,,,,,,,,,,,,,,,,,,,,,,,,,,,,550.7109282016754,None,551.7004580497742,None,2,1,0.6186480522155762,551.7004580497742,None,8004,001,04,2021_Nov_05_1100,task-switching-replication,2021.2.3,60.01284874395658,
2,39,experiment,04,standing,noswitch,congruant,solid,triangle,blue,stimuli/solid-rectangle.png,stimuli/blue-triangle.png,2,,,,,,,,,,,,,,,,,,,,,,,,,0,0,0,0,1,0,1,0,0,38,38,38,,,,,,,,,,,,,,,,,,,,,,,,,,,,,,,,,,,,,,,,,,,,,,,,,,,,,,,,,,,,,,,1636128541.4347079,,,,,,,,,,554.20228099823,None,,,,,,,,,,,,,,,,,,,,,,,,,,,,,,,,,,,,,,,,,,552.6596031188965,None,553.6497251987457,None,2,1,0.4233248233795166,553.6497251987457,None,8004,001,04,2021_Nov_05_1100,task-switching-replication,2021.2.3,60.01284874395658,
2,40,experiment,04,standing,switch,incongruant,dashed,square,blue,stimuli/dashed-rectangle.png,stimuli/blue-square.png,1,,,,,,,,,,,,,,,,,,,,,,,,,0,0,0,0,1,0,1,0,0,39,39,39,,,,,,,,,,,,,,,,,,,,,,,,,,,,,,,,,,,,,,,,,,,,,,,,,,,,,,,,,,,,,,,1636128543.32951,,,,,,,,,,556.096244096756,None,,,,,,,,,,,,,,,,,,,,,,,,,,,,,,,,,,,,,,,,,,554.4317560195923,None,555.4218480587006,None,1,1,0.5360820293426514,555.4218480587006,None,8004,001,04,2021_Nov_05_1100,task-switching-replication,2021.2.3,60.01284874395658,
2,41,experiment,04,standing,noswitch,congruant,dashed,square,blue,stimuli/dashed-rectangle.png,stimuli/blue-square.png,1,,,,,,,,,,,,,,,,,,,,,,,,,0,0,0,0,1,0,1,0,0,40,40,40,,,,,,,,,,,,,,,,,,,,,,,,,,,,,,,,,,,,,,,,,,,,,,,,,,,,,,,,,,,,,,,1636128545.1009424,,,,,,,,,,557.8685381412506,None,,,,,,,,,,,,,,,,,,,,,,,,,,,,,,,,,,,,,,,,,,556.3259801864624,None,557.3162112236023,None,1,1,0.44856691360473633,557.3162112236023,None,8004,001,04,2021_Nov_05_1100,task-switching-replication,2021.2.3,60.01284874395658,
2,42,experiment,04,standing,switch,congruant,solid,square,yellow,stimuli/solid-rectangle.png,stimuli/yellow-square.png,1,,,,,,,,,,,,,,,,,,,,,,,,,0,0,0,0,1,0,1,0,0,41,41,41,,,,,,,,,,,,,,,,,,,,,,,,,,,,,,,,,,,,,,,,,,,,,,,,,,,,,,,,,,,,,,,1636128547.11002,,,,,,,,,,559.8774371147156,None,,,,,,,,,,,,,,,,,,,,,,,,,,,,,,,,,,,,,,,,,,558.0981101989746,None,559.0883250236511,None,1,1,0.6595289707183838,559.0883250236511,None,8004,001,04,2021_Nov_05_1100,task-switching-replication,2021.2.3,60.01284874395658,
2,43,experiment,04,standing,switch,congruant,dashed,square,blue,stimuli/dashed-rectangle.png,stimuli/blue-square.png,1,,,,,,,,,,,,,,,,,,,,,,,,,0,0,0,0,1,0,1,0,0,42,42,42,,,,,,,,,,,,,,,,,,,,,,,,,,,,,,,,,,,,,,,,,,,,,,,,,,,,,,,,,,,,,,,1636128549.0594404,,,,,,,,,,561.8270080089569,None,,,,,,,,,,,,,,,,,,,,,,,,,,,,,,,,,,,,,,,,,,560.1068091392517,None,561.0965330600739,None,1,1,0.5923781394958496,561.0965330600739,None,8004,001,04,2021_Nov_05_1100,task-switching-replication,2021.2.3,60.01284874395658,
2,44,experiment,04,standing,switch,congruant,solid,triangle,yellow,stimuli/solid-rectangle.png,stimuli/yellow-triangle.png,1,,,,,,,,,,,,,,,,,,,,,,,,,0,0,0,0,1,0,1,0,0,43,43,43,0,0,0,0,,,,,,,,,,,,,,,,,,,,,,,,,,,,,,,,,,,,,,,,,,,,,,,,,,,,,,,,,,,1636128550.8930178,,,,,,,,,,,,,,,,,,,,,,,,,,,,,,,,,,,,,563.6322295665741,564.654196023941,563.664510011673,None,,,,,,,,,,,,,562.0562992095947,None,563.0480601787567,None,2,0,0.4630320072174072,563.0480601787567,None,8004,001,04,2021_Nov_05_1100,task-switching-replication,2021.2.3,60.01284874395658,
2,44,experiment,04,standing,switch,congruant,solid,triangle,yellow,stimuli/solid-rectangle.png,stimuli/yellow-triangle.png,1,,,,,,,,,,,,,,,,,,,,,,,,,0,0,0,0,1,0,1,0,0,43,43,43,,,,,,,,,,,,,,,,,,,,,,,,,,,,,,,,,,,,,,,,,,,,,,,,,,,,,,,,,,,,,,,,,,,,,,,,,568.6806042194366,None,,,,,,,,,,,,,,,,,,,,,,,,,,,,,,,,,,,,,,,,,,,,,,,,,,,8004,001,04,2021_Nov_05_1100,task-switching-replication,2021.2.3,60.01284874395658,
2,45,experiment,04,standing,noswitch,congruant,solid,square,yellow,stimuli/solid-rectangle.png,stimuli/yellow-square.png,1,,,,,,,,,,,,,,,,,,,,,,,,,0,0,0,0,1,0,1,0,0,44,44,44,,,,,,,,,,,,,,,,,,,,,,,,,,,,,,,,,,,,,,,,,,,,,,,,,,,,,,,,,,,,,,,1636128557.717318,,,,,,,,,,570.4840340614319,None,,,,,,,,,,,,,,,,,,,,,,,,,,,,,,,,,,,,,,,,,,568.8777852058411,None,569.8681380748749,None,1,1,0.4817540645599365,569.8681380748749,None,8004,001,04,2021_Nov_05_1100,task-switching-replication,2021.2.3,60.01284874395658,
2,46,experiment,04,standing,switch,incongruant,dashed,triangle,blue,stimuli/dashed-rectangle.png,stimuli/blue-triangle.png,2,,,,,,,,,,,,,,,,,,,,,,,,,0,0,0,0,1,0,1,0,0,45,45,45,,,,,,,,,,,,,,,,,,,,,,,,,,,,,,,,,,,,,,,,,,,,,,,,,,,,,,,,,,,,,,,1636128559.8469355,,,,,,,,,,572.6139261722565,None,,,,,,,,,,,,,,,,,,,,,,,,,,,,,,,,,,,,,,,,,,570.7136001586914,None,571.7035410404205,None,2,1,0.7765359878540039,571.7035410404205,None,8004,001,04,2021_Nov_05_1100,task-switching-replication,2021.2.3,60.01284874395658,
2,47,experiment,04,standing,noswitch,incongruant,dashed,square,blue,stimuli/dashed-rectangle.png,stimuli/blue-square.png,1,,,,,,,,,,,,,,,,,,,,,,,,,0,0,0,0,1,0,1,0,0,46,46,46,,,,,,,,,,,,,,,,,,,,,,,,,,,,,,,,,,,,,,,,,,,,,,,,,,,,,,,,,,,,,,,1636128561.9143848,,,,,,,,,,574.6809902191162,None,,,,,,,,,,,,,,,,,,,,,,,,,,,,,,,,,,,,,,,,,,572.8432760238647,None,573.8333551883698,None,1,1,0.7043628692626953,573.8333551883698,None,8004,001,04,2021_Nov_05_1100,task-switching-replication,2021.2.3,60.01284874395658,
2,48,experiment,04,standing,noswitch,incongruant,dashed,triangle,blue,stimuli/dashed-rectangle.png,stimuli/blue-triangle.png,2,,,,,,,,,,,,,,,,,,,,,,,,,0,0,0,0,1,0,1,0,0,47,47,47,,,,,,,,,,,,,,,,,,,,,,,,,,,,,,,,,,,,,,,,,,,,,,,,,,,,,,,,,,,,,,,1636128563.7442431,,,,,,,,,,576.5114951133728,None,,,,,,,,,,,,,,,,,,,,,,,,,,,,,,,,,,,,,,,,,,574.9104862213135,None,575.9002151489258,None,2,1,0.5122318267822266,575.9002151489258,None,8004,001,04,2021_Nov_05_1100,task-switching-replication,2021.2.3,60.01284874395658,
2,49,experiment,04,standing,noswitch,incongruant,dashed,square,yellow,stimuli/dashed-rectangle.png,stimuli/yellow-square.png,1,,,,,,,,,,,,,,,,,,,,,,,,,0,0,0,0,1,0,1,0,0,48,48,48,,,,,,,,,,,,,,,,,,,,,,,,,,,,,,,,,,,,,,,,,,,,,,,,,,,,,,,,,,,,,,,1636128565.8765576,,,,,,,,,,578.6433532238007,None,,,,,,,,,,,,,,,,,,,,,,,,,,,,,,,,,,,,,,,,,,576.7410490512848,None,577.7313241958618,None,1,1,0.7634270191192627,577.7313241958618,None,8004,001,04,2021_Nov_05_1100,task-switching-replication,2021.2.3,60.01284874395658,
,,,04,,,,,,,,,,,,,,,,,,,,,,,,,,,,,,,,,,0,0,0,0,1,0,1,0,,,,,,,,,,,,,,,,,,,,,,,,,,,,,,,,,,,,,,,,,,,,,,,,,,,,,,,,,,,,,,,,,,,,,,,,,,,,,,,,,,,,,,,,,,,,,,,,,,,,,,,,,,,,,,,,,,,,,,,,,,,,,,,,,8004,001,04,2021_Nov_05_1100,task-switching-replication,2021.2.3,60.01284874395658,
3,1,experiment,04,standing,buffer,buffer,dashed,square,yellow,stimuli/dashed-rectangle.png,stimuli/yellow-square.png,1,,,,,,,,,,,,,,,,,,,,,,,,,0,0,0,0,2,0,2,0,0,0,0,0,,,,,,,,,,,,,,,,,,,,,,,,,,,,,,,,,,,,,,,,,,,,,,,,,,,,,,,,,,,,,,,1636128618.7930682,,,,,,,,,,631.5611951351166,None,,,,,,,,,,,,,,,,,,,,,,,,,,,,,,578.8736670017242,None,1,49.88623285293579,578.8736670017242,None,628.8686211109161,None,1,0.7991499900817871,628.8686211109161,None,629.8402941226959,None,630.8305351734161,None,1,1,0.575232982635498,630.8305351734161,None,8004,001,04,2021_Nov_05_1100,task-switching-replication,2021.2.3,60.01284874395658,
3,2,experiment,04,standing,switch,congruant,solid,triangle,yellow,stimuli/solid-rectangle.png,stimuli/yellow-triangle.png,1,,,,,,,,,,,,,,,,,,,,,,,,,0,0,0,0,2,0,2,0,0,1,1,1,0,0,0,0,,,,,,,,,,,,,,,,,,,,,,,,,,,,,,,,,,,,,,,,,,,,,,,,,,,,,,,,,,,1636128620.5095372,,,,,,,,,,,,,,,,,,,,,,,,,,,,,,,,,,,,,633.248738527298,634.2707741260529,633.2813730239868,None,,,,,,,,,,,,,631.7904920578003,None,632.7805600166321,None,2,0,0.35688090324401855,632.7805600166321,None,8004,001,04,2021_Nov_05_1100,task-switching-replication,2021.2.3,60.01284874395658,
3,2,experiment,04,standing,switch,congruant,solid,triangle,yellow,stimuli/solid-rectangle.png,stimuli/yellow-triangle.png,1,,,,,,,,,,,,,,,,,,,,,,,,,0,0,0,0,2,0,2,0,0,1,1,1,,,,,,,,,,,,,,,,,,,,,,,,,,,,,,,,,,,,,,,,,,,,,,,,,,,,,,,,,,,,,,,,,,,,,,,,,638.2968120574951,None,,,,,,,,,,,,,,,,,,,,,,,,,,,,,,,,,,,,,,,,,,,,,,,,,,,8004,001,04,2021_Nov_05_1100,task-switching-replication,2021.2.3,60.01284874395658,
3,3,experiment,04,standing,switch,incongruant,dashed,triangle,blue,stimuli/dashed-rectangle.png,stimuli/blue-triangle.png,2,,,,,,,,,,,,,,,,,,,,,,,,,0,0,0,0,2,0,2,0,0,2,2,2,,,,,0,0,0,0,,,,,,,,,,,,,,,,,,,,,,,,,,,,,,,,,,,,,,,,,,,,,,,,,,,,,,,1636128627.450672,,,,,,,,,,,,640.1898787021637,641.2118639945984,640.2224180698395,None,,,,,,,,,,,,,,,,,,,,,,,,,,,,,,,,,,,,,,638.4940969944,None,639.4842710494995,None,1,0,0.5893421173095703,639.4842710494995,None,8004,001,04,2021_Nov_05_1100,task-switching-replication,2021.2.3,60.01284874395658,
3,3,experiment,04,standing,switch,incongruant,dashed,triangle,blue,stimuli/dashed-rectangle.png,stimuli/blue-triangle.png,2,,,,,,,,,,,,,,,,,,,,,,,,,0,0,0,0,2,0,2,0,0,2,2,2,,,,,,,,,,,,,,,,,,,,,,,,,,,,,,,,,,,,,,,,,,,,,,,,,,,,,,,,,,,,,,,,,,,,,,,,,645.2385561466217,None,,,,,,,,,,,,,,,,,,,,,,,,,,,,,,,,,,,,,,,,,,,,,,,,,,,8004,001,04,2021_Nov_05_1100,task-switching-replication,2021.2.3,60.01284874395658,
3,4,experiment,04,standing,noswitch,congruant,dashed,triangle,blue,stimuli/dashed-rectangle.png,stimuli/blue-triangle.png,2,,,,,,,,,,,,,,,,,,,,,,,,,0,0,0,0,2,0,2,0,0,3,3,3,,,,,,,,,,,,,,,,,,,,,,,,,,,,,,,,,,,,,,,,,,,,,,,,,,,,,,,,,,,,,,,1636128634.2726636,,,,,,,,,,647.0394201278687,None,,,,,,,,,,,,,,,,,,,,,,,,,,,,,,,,,,,,,,,,,,645.4356770515442,None,646.4257190227509,None,2,1,0.47038722038269043,646.4257190227509,None,8004,001,04,2021_Nov_05_1100,task-switching-replication,2021.2.3,60.01284874395658,
3,5,experiment,04,standing,switch,congruant,solid,triangle,blue,stimuli/solid-rectangle.png,stimuli/blue-triangle.png,2,,,,,,,,,,,,,,,,,,,,,,,,,0,0,0,0,2,0,2,0,0,4,4,4,,,,,,,,,,,,,,,,,,,,,,,,,,,,,,,,,,,,,,,,,,,,,,,,,,,,,,,,,,,,,,,1636128636.3425353,,,,,,,,,,649.1099941730499,None,,,,,,,,,,,,,,,,,,,,,,,,,,,,,,,,,,,,,,,,,,647.2693190574646,None,648.2606291770935,None,2,1,0.7251698970794678,648.2606291770935,None,8004,001,04,2021_Nov_05_1100,task-switching-replication,2021.2.3,60.01284874395658,
3,6,experiment,04,standing,switch,incongruant,dashed,square,blue,stimuli/dashed-rectangle.png,stimuli/blue-square.png,1,,,,,,,,,,,,,,,,,,,,,,,,,0,0,0,0,2,0,2,0,0,5,5,5,,,,,,,,,,,,,,,,,,,,,,,,,,,,,,,,,,,,,,,,,,,,,,,,,,,,,,,,,,,,,,,1636128638.295144,,,,,,,,,,651.0622742176056,None,,,,,,,,,,,,,,,,,,,,,,,,,,,,,,,,,,,,,,,,,,649.3397300243378,None,650.3303411006927,None,1,1,0.5926229953765869,650.3303411006927,None,8004,001,04,2021_Nov_05_1100,task-switching-replication,2021.2.3,60.01284874395658,
3,7,experiment,04,standing,switch,incongruant,solid,triangle,blue,stimuli/solid-rectangle.png,stimuli/blue-triangle.png,2,,,,,,,,,,,,,,,,,,,,,,,,,0,0,0,0,2,0,2,0,0,6,6,6,,,,,,,,,,,,,,,,,,,,,,,,,,,,,,,,,,,,,,,,,,,,,,,,,,,,,,,,,,,,,,,1636128640.1868918,,,,,,,,,,652.9538111686707,None,,,,,,,,,,,,,,,,,,,,,,,,,,,,,,,,,,,,,,,,,,651.2916221618652,None,652.281553030014,None,2,1,0.5185050964355469,652.281553030014,None,8004,001,04,2021_Nov_05_1100,task-switching-replication,2021.2.3,60.01284874395658,
3,8,experiment,04,standing,noswitch,congruant,solid,triangle,blue,stimuli/solid-rectangle.png,stimuli/blue-triangle.png,2,,,,,,,,,,,,,,,,,,,,,,,,,0,0,0,0,2,0,2,0,0,7,7,7,,,,,,,,,,,,,,,,,,,,,,,,,,,,,,,,,,,,,,,,,,,,,,,,,,,,,,,,,,,,,,,1636128641.900622,,,,,,,,,,654.6682751178741,None,,,,,,,,,,,,,,,,,,,,,,,,,,,,,,,,,,,,,,,,,,653.1835172176361,None,654.1748239994049,None,2,1,0.3620798587799072,654.1748239994049,None,8004,001,04,2021_Nov_05_1100,task-switching-replication,2021.2.3,60.01284874395658,
3,9,experiment,04,standing,noswitch,incongruant,solid,square,yellow,stimuli/solid-rectangle.png,stimuli/yellow-square.png,1,,,,,,,,,,,,,,,,,,,,,,,,,0,0,0,0,2,0,2,0,0,8,8,8,,,,,,,,,,,,,,,,,,,,,,,,,,,,,,,,,,,,,,,,,,,,,,,,,,,,,,,,,,,,,,,1636128643.6732514,,,,,,,,,,656.4406549930573,None,,,,,,,,,,,,,,,,,,,,,,,,,,,,,,,,,,,,,,,,,,654.8978180885315,None,655.888589143753,None,1,1,0.44171595573425293,655.888589143753,None,8004,001,04,2021_Nov_05_1100,task-switching-replication,2021.2.3,60.01284874395658,
3,10,experiment,04,standing,noswitch,congruant,solid,square,yellow,stimuli/solid-rectangle.png,stimuli/yellow-square.png,1,,,,,,,,,,,,,,,,,,,,,,,,,0,0,0,0,2,0,2,0,0,9,9,9,,,,,,,,,,,,,,,,,,,,,,,,,,,,,,,,,,,,,,,,,,,,,,,,,,,,,,,,,,,,,,,1636128645.6819143,,,,,,,,,,658.4494321346283,None,,,,,,,,,,,,,,,,,,,,,,,,,,,,,,,,,,,,,,,,,,656.6699261665344,None,657.659674167633,None,1,1,0.6589829921722412,657.659674167633,None,8004,001,04,2021_Nov_05_1100,task-switching-replication,2021.2.3,60.01284874395658,
3,11,experiment,04,standing,noswitch,congruant,solid,square,yellow,stimuli/solid-rectangle.png,stimuli/yellow-square.png,1,,,,,,,,,,,,,,,,,,,,,,,,,0,0,0,0,2,0,2,0,0,10,10,10,,,,,,,,,,,,,,,,,,,,,,,,,,,,,,,,,,,,,,,,,,,,,,,,,,,,,,,,,,,,,,,1636128647.4540825,,,,,,,,,,660.221654176712,None,,,,,,,,,,,,,,,,,,,,,,,,,,,,,,,,,,,,,,,,,,658.6789610385895,None,659.6692531108856,None,1,1,0.4205489158630371,659.6692531108856,None,8004,001,04,2021_Nov_05_1100,task-switching-replication,2021.2.3,60.01284874395658,
3,12,experiment,04,standing,switch,incongruant,dashed,triangle,blue,stimuli/dashed-rectangle.png,stimuli/blue-triangle.png,2,,,,,,,,,,,,,,,,,,,,,,,,,0,0,0,0,2,0,2,0,0,11,11,11,,,,,,,,,,,,,,,,,,,,,,,,,,,,,,,,,,,,,,,,,,,,,,,,,,,,,,,,,,,,,,,1636128649.287725,,,,,,,,,,662.0545771121979,None,,,,,,,,,,,,,,,,,,,,,,,,,,,,,,,,,,,,,,,,,,660.450982093811,None,661.440425157547,None,2,1,0.46537303924560547,661.440425157547,None,8004,001,04,2021_Nov_05_1100,task-switching-replication,2021.2.3,60.01284874395658,
3,13,experiment,04,standing,switch,incongruant,solid,triangle,yellow,stimuli/solid-rectangle.png,stimuli/yellow-triangle.png,1,,,,,,,,,,,,,,,,,,,,,,,,,0,0,0,0,2,0,2,0,0,12,12,12,,,,,,,,,,,,,,,,,,,,,,,,,,,,,,,,,,,,,,,,,,,,,,,,,,,,,,,,,,,,,,,1636128651.2371955,,,,,,,,,,664.0040640830994,None,,,,,,,,,,,,,,,,,,,,,,,,,,,,,,,,,,,,,,,,,,662.28373503685,None,663.2734470367432,None,1,1,0.5966989994049072,663.2734470367432,None,8004,001,04,2021_Nov_05_1100,task-switching-replication,2021.2.3,60.01284874395658,
3,14,experiment,04,standing,noswitch,incongruant,solid,square,blue,stimuli/solid-rectangle.png,stimuli/blue-square.png,2,,,,,,,,,,,,,,,,,,,,,,,,,0,0,0,0,2,0,2,0,0,13,13,13,0,0,0,0,,,,,,,,,,,,,,,,,,,,,,,,,,,,,,,,,,,,,,,,,,,,,,,,,,,,,,,,,,,1636128653.0671668,,,,,,,,,,,,,,,,,,,,,,,,,,,,,,,,,,,,,665.8063144683838,666.8292701244354,665.8395671844482,None,,,,,,,,,,,,,664.2333960533142,None,665.2230310440063,None,1,0,0.4765768051147461,665.2230310440063,None,8004,001,04,2021_Nov_05_1100,task-switching-replication,2021.2.3,60.01284874395658,
3,14,experiment,04,standing,noswitch,incongruant,solid,square,blue,stimuli/solid-rectangle.png,stimuli/blue-square.png,2,,,,,,,,,,,,,,,,,,,,,,,,,0,0,0,0,2,0,2,0,0,13,13,13,,,,,,,,,,,,,,,,,,,,,,,,,,,,,,,,,,,,,,,,,,,,,,,,,,,,,,,,,,,,,,,,,,,,,,,,,670.8544561862946,None,,,,,,,,,,,,,,,,,,,,,,,,,,,,,,,,,,,,,,,,,,,,,,,,,,,8004,001,04,2021_Nov_05_1100,task-switching-replication,2021.2.3,60.01284874395658,
3,15,experiment,04,standing,switch,congruant,dashed,triangle,blue,stimuli/dashed-rectangle.png,stimuli/blue-triangle.png,2,,,,,,,,,,,,,,,,,,,,,,,,,0,0,0,0,2,0,2,0,0,14,14,14,,,,,,,,,,,,,,,,,,,,,,,,,,,,,,,,,,,,,,,,,,,,,,,,,,,,,,,,,,,,,,,1636128659.8865507,,,,,,,,,,672.6534440517426,None,,,,,,,,,,,,,,,,,,,,,,,,,,,,,,,,,,,,,,,,,,671.0514981746674,None,672.0420300960541,None,2,1,0.46230196952819824,672.0420300960541,None,8004,001,04,2021_Nov_05_1100,task-switching-replication,2021.2.3,60.01284874395658,
3,16,experiment,04,standing,switch,congruant,solid,triangle,blue,stimuli/solid-rectangle.png,stimuli/blue-triangle.png,2,,,,,,,,,,,,,,,,,,,,,,,,,0,0,0,0,2,0,2,0,0,15,15,15,,,,,,,,,,,,,,,,,,,,,,,,,,,,,,,,,,,,,,,,,,,,,,,,,,,,,,,,,,,,,,,1636128662.0738008,,,,,,,,,,674.8413391113281,None,,,,,,,,,,,,,,,,,,,,,,,,,,,,,,,,,,,,,,,,,,672.8832671642303,None,673.8736140727997,None,2,1,0.8212699890136719,673.8736140727997,None,8004,001,04,2021_Nov_05_1100,task-switching-replication,2021.2.3,60.01284874395658,
3,17,experiment,04,standing,noswitch,congruant,solid,triangle,blue,stimuli/solid-rectangle.png,stimuli/blue-triangle.png,2,,,,,,,,,,,,,,,,,,,,,,,,,0,0,0,0,2,0,2,0,0,16,16,16,,,,,,,,,,,,,,,,,,,,,,,,,,,,,,,,,,,,,,,,,,,,,,,,,,,,,,,,,,,,,,,1636128663.8459156,,,,,,,,,,676.6135032176971,None,,,,,,,,,,,,,,,,,,,,,,,,,,,,,,,,,,,,,,,,,,675.0709671974182,None,676.0612511634827,None,2,1,0.4334568977355957,676.0612511634827,None,8004,001,04,2021_Nov_05_1100,task-switching-replication,2021.2.3,60.01284874395658,
3,18,experiment,04,standing,switch,congruant,dashed,triangle,yellow,stimuli/dashed-rectangle.png,stimuli/yellow-triangle.png,2,,,,,,,,,,,,,,,,,,,,,,,,,0,0,0,0,2,0,2,0,0,17,17,17,,,,,0,0,0,0,,,,,,,,,,,,,,,,,,,,,,,,,,,,,,,,,,,,,,,,,,,,,,,,,,,,,,,1636128665.738586,,,,,,,,,,,,678.4779424667358,679.500274181366,678.5098741054535,None,,,,,,,,,,,,,,,,,,,,,,,,,,,,,,,,,,,,,,676.8434891700745,None,677.8333241939545,None,1,0,0.5337228775024414,677.8333241939545,None,8004,001,04,2021_Nov_05_1100,task-switching-replication,2021.2.3,60.01284874395658,
