blockNum,trialNum,trialType,condition,posture,switchTrialType,congruantTrialType,cueType,shapeType,shapeColor,cueFileName,stimuliFileName,correctAnswer,untimedTrials.thisRepN,untimedTrials.thisTrialN,untimedTrials.thisN,untimedTrials.thisIndex,selectSolid1.thisRepN,selectSolid1.thisTrialN,selectSolid1.thisN,selectSolid1.thisIndex,selectDashed1.thisRepN,selectDashed1.thisTrialN,selectDashed1.thisN,selectDashed1.thisIndex,timedTrials.thisRepN,timedTrials.thisTrialN,timedTrials.thisN,timedTrials.thisIndex,selectSolid2.thisRepN,selectSolid2.thisTrialN,selectSolid2.thisN,selectSolid2.thisIndex,selectDashed2.thisRepN,selectDashed2.thisTrialN,selectDashed2.thisN,selectDashed2.thisIndex,postures.thisRepN,postures.thisTrialN,postures.thisN,postures.thisIndex,blocks.thisRepN,blocks.thisTrialN,blocks.thisN,blocks.thisIndex,trials.thisRepN,trials.thisTrialN,trials.thisN,trials.thisIndex,selectSolid.thisRepN,selectSolid.thisTrialN,selectSolid.thisN,selectSolid.thisIndex,selectDashed.thisRepN,selectDashed.thisTrialN,selectDashed.thisN,selectDashed.thisIndex,text_3.started,text_3.stopped,key_resp_2.keys,key_resp_2.rt,key_resp_2.started,key_resp_2.stopped,image_4.started,image_4.stopped,key_resp_4.keys,key_resp_4.rt,key_resp_4.started,key_resp_4.stopped,image_5.started,image_5.stopped,key_resp_5.keys,key_resp_5.rt,key_resp_5.started,key_resp_5.stopped,image_6.started,image_6.stopped,key_resp_6.keys,key_resp_6.rt,key_resp_6.started,key_resp_6.stopped,image_7.started,image_7.stopped,key_resp_7.keys,key_resp_7.rt,key_resp_7.started,key_resp_7.stopped,image_8.started,image_8.stopped,key_resp_8.keys,key_resp_8.rt,key_resp_8.started,key_resp_8.stopped,image_9.started,image_9.stopped,key_resp_9.keys,key_resp_9.rt,key_resp_9.started,key_resp_9.stopped,image_10.started,image_10.stopped,key_resp_10.keys,key_resp_10.rt,key_resp_10.started,key_resp_10.stopped,image_11.started,image_11.stopped,key_resp_11.keys,key_resp_11.rt,key_resp_11.started,key_resp_11.stopped,utcTime,cue_untimed_image.started,cue_untimed_image.stopped,stimuli_untimed_image.started,stimuli_untimed_image.stopped,untimed_resp.keys,untimed_resp.corr,untimed_resp.rt,untimed_resp.started,untimed_resp.stopped,text_2.started,text_2.stopped,sound_2.started,sound_2.stopped,image_3.started,image_3.stopped,image_12.started,image_12.stopped,key_resp_12.keys,key_resp_12.rt,key_resp_12.started,key_resp_12.stopped,image_13.started,image_13.stopped,key_resp_13.keys,key_resp_13.rt,key_resp_13.started,key_resp_13.stopped,cue_timed_image.started,cue_timed_image.stopped,stimuli_timed_image.started,stimuli_timed_image.stopped,timed_resp.keys,timed_resp.corr,timed_resp.rt,timed_resp.started,timed_resp.stopped,sound_1.started,sound_1.stopped,image_2.started,image_2.stopped,image.started,image.stopped,key_response.keys,key_response.rt,key_response.started,key_response.stopped,text.started,text.stopped,key_resp.keys,key_resp.rt,key_resp.started,key_resp.stopped,cue_image.started,cue_image.stopped,stimuli_image.started,stimuli_image.stopped,exp_resp.keys,exp_resp.corr,exp_resp.rt,exp_resp.started,exp_resp.stopped,participant,session,condition,date,expName,psychopyVersion,frameRate,
,,,12,,,,,,,,,,,,,,,,,,,,,,,,,,,,,,,,,,,,,,,,,,,,,,,,,,,,,,23.441380977630615,None,1,0.8519399166107178,23.441380977630615,None,,,,,,,,,,,,,,,,,,,,,,,,,,,,,,,,,,,,,,,,,,,,,,,,,,,,,,,,,,,,,,,,,,,,,,,,,,,,,,,,,,,,,,,,,,,,,,,,,,,,,,,,,,,,,,,8005,001,12,2021_Nov_05_1322,task-switching-replication,2021.2.3,60.00022888270905,
,,,12,,,,,,,,,,,,,,,,,,,,,,,,,,,,,,,,,,,,,,,,,,,,,,,,,,,,,,,,,,,,24.33272409439087,None,1,0.8874270915985107,24.33272409439087,None,,,,,,,,,,,,,,,,,,,,,,,,,,,,,,,,,,,,,,,,,,,,,,,,,,,,,,,,,,,,,,,,,,,,,,,,,,,,,,,,,,,,,,,,,,,,,,,,,,,,,,,,,8005,001,12,2021_Nov_05_1322,task-switching-replication,2021.2.3,60.00022888270905,
,,,12,,,,,,,,,,,,,,,,,,,,,,,,,,,,,,,,,,,,,,,,,,,,,,,,,,,,,,,,,,,,,,,,,,25.273967027664185,None,1,1.570397138595581,25.273967027664185,None,,,,,,,,,,,,,,,,,,,,,,,,,,,,,,,,,,,,,,,,,,,,,,,,,,,,,,,,,,,,,,,,,,,,,,,,,,,,,,,,,,,,,,,,,,,,,,,,,,,8005,001,12,2021_Nov_05_1322,task-switching-replication,2021.2.3,60.00022888270905,
,,,12,,,,,,,,,,,,,,,,,,,,,,,,,,,,,,,,,,,,,,,,,,,,,,,,,,,,,,,,,,,,,,,,,,,,,,,,26.924877166748047,None,2,0.48444414138793945,26.924877166748047,None,,,,,,,,,,,,,,,,,,,,,,,,,,,,,,,,,,,,,,,,,,,,,,,,,,,,,,,,,,,,,,,,,,,,,,,,,,,,,,,,,,,,,,,,,,,,,8005,001,12,2021_Nov_05_1322,task-switching-replication,2021.2.3,60.00022888270905,
,,,12,,,,,,,,,,,,,,,,,,,,,,,,,,,,,,,,,,,,,,,,,,,,,,,,,,,,,,,,,,,,,,,,,,,,,,,,,,,,,,27.468945026397705,None,1,0.6827678680419922,27.468945026397705,None,,,,,,,,,,,,,,,,,,,,,,,,,,,,,,,,,,,,,,,,,,,,,,,,,,,,,,,,,,,,,,,,,,,,,,,,,,,,,,,,,,,,,,,8005,001,12,2021_Nov_05_1322,task-switching-replication,2021.2.3,60.00022888270905,
,,,12,,,,,,,,,,,,,,,,,,,,,,,,,,,,,,,,,,,,,,,,,,,,,,,,,,,,,,,,,,,,,,,,,,,,,,,,,,,,,,,,,,,,28.249499082565308,None,1,1.7397289276123047,28.249499082565308,None,,,,,,,,,,,,,,,,,,,,,,,,,,,,,,,,,,,,,,,,,,,,,,,,,,,,,,,,,,,,,,,,,,,,,,,,,,,,,,,,,8005,001,12,2021_Nov_05_1322,task-switching-replication,2021.2.3,60.00022888270905,
,,,12,,,,,,,,,,,,,,,,,,,,,,,,,,,,,,,,,,,,,,,,,,,,,,,,,,,,,,,,,,,,,,,,,,,,,,,,,,,,,,,,,,,,,,,,,,30.077007055282593,None,2,0.8564209938049316,30.077007055282593,None,,,,,,,,,,,,,,,,,,,,,,,,,,,,,,,,,,,,,,,,,,,,,,,,,,,,,,,,,,,,,,,,,,,,,,,,,,,8005,001,12,2021_Nov_05_1322,task-switching-replication,2021.2.3,60.00022888270905,
,,,12,,,,,,,,,,,,,,,,,,,,,,,,,,,,,,,,,,,,,,,,,,,,,,,,,,,,,,,,,,,,,,,,,,,,,,,,,,,,,,,,,,,,,,,,,,,,,,,,30.987920999526978,None,1,1.3823809623718262,30.987920999526978,None,,,,,,,,,,,,,,,,,,,,,,,,,,,,,,,,,,,,,,,,,,,,,,,,,,,,,,,,,,,,,,,,,,,,,8005,001,12,2021_Nov_05_1322,task-switching-replication,2021.2.3,60.00022888270905,
,,,12,,,,,,,,,,,,,,,,,,,,,,,,,,,,,,,,,,,,,,,,,,,,,,,,,,,,,,,,,,,,,,,,,,,,,,,,,,,,,,,,,,,,,,,,,,,,,,,,,,,,,,32.44002318382263,None,1,7.22697901725769,32.44002318382263,None,,,,,,,,,,,,,,,,,,,,,,,,,,,,,,,,,,,,,,,,,,,,,,,,,,,,,,,,,,,,,,,8005,001,12,2021_Nov_05_1322,task-switching-replication,2021.2.3,60.00022888270905,
1,1,untimed,12,sitting,buffer,buffer,solid,square,blue,stimuli/solid-rectangle.png,stimuli/blue-square.png,2,0,0,0,0,,,,,,,,,,,,,,,,,,,,,,,,,,,,,,,,,,,,,,,,,,,,,,,,,,,,,,,,,,,,,,,,,,,,,,,,,,,,,,,,,,,,,,,,,,,,,,,1636136580.1432009,39.77276396751404,None,40.74800705909729,None,2,1,0.517441987991333,40.74800705909729,None,41.35096311569214,None,,,,,,,,,,,,,,,,,,,,,,,,,,,,,,,,,,,,,,,,,,,,,,,,,,,8005,001,12,2021_Nov_05_1322,task-switching-replication,2021.2.3,60.00022888270905,
1,2,untimed,12,sitting,switch,incongruant,dashed,square,blue,stimuli/dashed-rectangle.png,stimuli/blue-square.png,1,0,1,1,1,,,,,0,0,0,0,,,,,,,,,,,,,,,,,,,,,,,,,,,,,,,,,,,,,,,,,,,,,,,,,,,,,,,,,,,,,,,,,,,,,,,,,,,,,,,,,,,,,,,1636136582.790052,41.5554621219635,None,42.52912497520447,None,2,0,1.3550128936767578,42.52912497520447,None,,,43.981831836700444,44.99635100364685,44.00332307815552,None,,,,,,,,,,,,,,,,,,,,,,,,,,,,,,,,,,,,,,,,,,,,,,,8005,001,12,2021_Nov_05_1322,task-switching-replication,2021.2.3,60.00022888270905,
1,2,untimed,12,sitting,switch,incongruant,dashed,square,blue,stimuli/dashed-rectangle.png,stimuli/blue-square.png,1,0,1,1,1,,,,,,,,,,,,,,,,,,,,,,,,,,,,,,,,,,,,,,,,,,,,,,,,,,,,,,,,,,,,,,,,,,,,,,,,,,,,,,,,,,,,,,,,,,,,,,,,,,,,,,,,,49.019654989242554,None,,,,,,,,,,,,,,,,,,,,,,,,,,,,,,,,,,,,,,,,,,,,,,,,,,,8005,001,12,2021_Nov_05_1322,task-switching-replication,2021.2.3,60.00022888270905,
1,3,untimed,12,sitting,switch,incongruant,solid,triangle,blue,stimuli/solid-rectangle.png,stimuli/blue-triangle.png,2,0,2,2,2,,,,,,,,,,,,,,,,,,,,,,,,,,,,,,,,,,,,,,,,,,,,,,,,,,,,,,,,,,,,,,,,,,,,,,,,,,,,,,,,,,,,,,,,,,,,,,,1636136589.5779555,49.217185974121094,None,50.189773082733154,None,2,1,0.485414981842041,50.189773082733154,None,50.80742406845093,None,,,,,,,,,,,,,,,,,,,,,,,,,,,,,,,,,,,,,,,,,,,,,,,,,,,8005,001,12,2021_Nov_05_1322,task-switching-replication,2021.2.3,60.00022888270905,
1,4,untimed,12,sitting,switch,congruant,dashed,triangle,blue,stimuli/dashed-rectangle.png,stimuli/blue-triangle.png,2,0,3,3,3,,,,,,,,,,,,,,,,,,,,,,,,,,,,,,,,,,,,,,,,,,,,,,,,,,,,,,,,,,,,,,,,,,,,,,,,,,,,,,,,,,,,,,,,,,,,,,,1636136591.5194242,51.037604093551636,None,52.01133704185486,None,2,1,0.5818769931793213,52.01133704185486,None,52.74902009963989,None,,,,,,,,,,,,,,,,,,,,,,,,,,,,,,,,,,,,,,,,,,,,,,,,,,,8005,001,12,2021_Nov_05_1322,task-switching-replication,2021.2.3,60.00022888270905,
1,5,untimed,12,sitting,noswitch,incongruant,dashed,square,yellow,stimuli/dashed-rectangle.png,stimuli/yellow-square.png,1,0,4,4,4,,,,,,,,,,,,,,,,,,,,,,,,,,,,,,,,,,,,,,,,,,,,,,,,,,,,,,,,,,,,,,,,,,,,,,,,,,,,,,,,,,,,,,,,,,,,,,,1636136593.3400707,52.97892999649048,None,53.95178699493408,None,1,1,0.5113179683685303,53.95178699493408,None,54.56922101974487,None,,,,,,,,,,,,,,,,,,,,,,,,,,,,,,,,,,,,,,,,,,,,,,,,,,,8005,001,12,2021_Nov_05_1322,task-switching-replication,2021.2.3,60.00022888270905,
1,6,untimed,12,sitting,switch,congruant,solid,triangle,yellow,stimuli/solid-rectangle.png,stimuli/yellow-triangle.png,1,0,5,5,5,,,,,,,,,,,,,,,,,,,,,,,,,,,,,,,,,,,,,,,,,,,,,,,,,,,,,,,,,,,,,,,,,,,,,,,,,,,,,,,,,,,,,,,,,,,,,,,1636136595.6389103,54.79865097999573,None,55.771406173706055,None,1,1,0.9545929431915283,55.771406173706055,None,56.86845016479492,None,,,,,,,,,,,,,,,,,,,,,,,,,,,,,,,,,,,,,,,,,,,,,,,,,,,8005,001,12,2021_Nov_05_1322,task-switching-replication,2021.2.3,60.00022888270905,
1,7,untimed,12,sitting,switch,incongruant,dashed,triangle,yellow,stimuli/dashed-rectangle.png,stimuli/yellow-triangle.png,2,0,6,6,6,,,,,,,,,,,,,,,,,,,,,,,,,,,,,,,,,,,,,,,,,,,,,,,,,,,,,,,,,,,,,,,,,,,,,,,,,,,,,,,,,,,,,,,,,,,,,,,1636136597.879584,57.098077058792114,None,58.0708270072937,None,2,1,0.8881590366363525,58.0708270072937,None,59.108510971069336,None,,,,,,,,,,,,,,,,,,,,,,,,,,,,,,,,,,,,,,,,,,,,,,,,,,,8005,001,12,2021_Nov_05_1322,task-switching-replication,2021.2.3,60.00022888270905,
1,8,untimed,12,sitting,switch,incongruant,solid,square,yellow,stimuli/solid-rectangle.png,stimuli/yellow-square.png,1,0,7,7,7,,,,,,,,,,,,,,,,,,,,,,,,,,,,,,,,,,,,,,,,,,,,,,,,,,,,,,,,,,,,,,,,,,,,,,,,,,,,,,,,,,,,,,,,,,,,,,,1636136600.3609574,59.338571071624756,None,60.31156611442566,None,1,1,1.1236791610717773,60.31156611442566,None,61.58986020088196,None,,,,,,,,,,,,,,,,,,,,,,,,,,,,,,,,,,,,,,,,,,,,,,,,,,,8005,001,12,2021_Nov_05_1322,task-switching-replication,2021.2.3,60.00022888270905,
1,9,untimed,12,sitting,noswitch,incongruant,solid,square,blue,stimuli/solid-rectangle.png,stimuli/blue-square.png,2,0,8,8,8,,,,,,,,,,,,,,,,,,,,,,,,,,,,,,,,,,,,,,,,,,,,,,,,,,,,,,,,,,,,,,,,,,,,,,,,,,,,,,,,,,,,,,,,,,,,,,,1636136602.4249687,61.82026410102844,None,62.792702198028564,None,2,1,0.7166421413421631,62.792702198028564,None,63.6540150642395,None,,,,,,,,,,,,,,,,,,,,,,,,,,,,,,,,,,,,,,,,,,,,,,,,,,,8005,001,12,2021_Nov_05_1322,task-switching-replication,2021.2.3,60.00022888270905,
1,10,untimed,12,sitting,switch,incongruant,dashed,square,blue,stimuli/dashed-rectangle.png,stimuli/blue-square.png,1,0,9,9,9,,,,,,,,,,,,,,,,,,,,,,,,,,,,,,,,,,,,,,,,,,,,,,,,,,,,,,,,,,,,,,,,,,,,,,,,,,,,,,,,,,,,,,,,,,,,,,,1636136604.6043823,63.88481402397156,None,64.85690808296204,None,1,1,0.8170340061187744,64.85690808296204,None,65.833181142807,None,,,,,,,,,,,,,,,,,,,,,,,,,,,,,,,,,,,,,,,,,,,,,,,,,,,8005,001,12,2021_Nov_05_1322,task-switching-replication,2021.2.3,60.00022888270905,
1,11,untimed,12,sitting,noswitch,congruant,dashed,square,yellow,stimuli/dashed-rectangle.png,stimuli/yellow-square.png,1,0,10,10,10,,,,,,,,,,,,,,,,,,,,,,,,,,,,,,,,,,,,,,,,,,,,,,,,,,,,,,,,,,,,,,,,,,,,,,,,,,,,,,,,,,,,,,,,,,,,,,,1636136606.545413,66.0638689994812,None,67.03689908981323,None,1,1,0.5881068706512451,67.03689908981323,None,67.77539110183716,None,,,,,,,,,,,,,,,,,,,,,,,,,,,,,,,,,,,,,,,,,,,,,,,,,,,8005,001,12,2021_Nov_05_1322,task-switching-replication,2021.2.3,60.00022888270905,
1,12,untimed,12,sitting,noswitch,incongruant,dashed,triangle,yellow,stimuli/dashed-rectangle.png,stimuli/yellow-triangle.png,2,0,11,11,11,,,,,0,0,0,0,,,,,,,,,,,,,,,,,,,,,,,,,,,,,,,,,,,,,,,,,,,,,,,,,,,,,,,,,,,,,,,,,,,,,,,,,,,,,,,,,,,,,,,1636136608.9053571,68.00545811653137,None,68.9778699874878,None,1,0,1.0531208515167236,68.9778699874878,None,,,70.10653948783875,71.12555408477783,70.14003300666809,None,,,,,,,,,,,,,,,,,,,,,,,,,,,,,,,,,,,,,,,,,,,,,,,8005,001,12,2021_Nov_05_1322,task-switching-replication,2021.2.3,60.00022888270905,
1,12,untimed,12,sitting,noswitch,incongruant,dashed,triangle,yellow,stimuli/dashed-rectangle.png,stimuli/yellow-triangle.png,2,0,11,11,11,,,,,,,,,,,,,,,,,,,,,,,,,,,,,,,,,,,,,,,,,,,,,,,,,,,,,,,,,,,,,,,,,,,,,,,,,,,,,,,,,,,,,,,,,,,,,,,,,,,,,,,,,75.13610696792603,None,,,,,,,,,,,,,,,,,,,,,,,,,,,,,,,,,,,,,,,,,,,,,,,,,,,8005,001,12,2021_Nov_05_1322,task-switching-replication,2021.2.3,60.00022888270905,
,,,12,,,,,,,,,,,,,,,,,,,,,,,,,,,,,,,,,,,,,,,,,,,,,,,,,,,,,,,,,,,,,,,,,,,,,,,,,,,,,,,,,,,,,,,,,,,,,,,,,,,,,,,,,,,,,,,,,,,,,,,,,,,,75.36590218544006,None,1,4.097933053970337,75.36590218544006,None,,,,,,,,,,,,,,,,,,,,,,,,,,,,,,,,,,,,,,,,,8005,001,12,2021_Nov_05_1322,task-switching-replication,2021.2.3,60.00022888270905,
,,,12,,,,,,,,,,,,,,,,,,,,,,,,,,,,,,,,,,,,,,,,,,,,,,,,,,,,,,,,,,,,,,,,,,,,,,,,,,,,,,,,,,,,,,,,,,,,,,,,,,,,,,,,,,,,,,,,,,,,,,,,,,,,,,,,,,79.55323719978333,None,1,9.055625915527344,79.55323719978333,None,,,,,,,,,,,,,,,,,,,,,,,,,,,,,,,,,,,8005,001,12,2021_Nov_05_1322,task-switching-replication,2021.2.3,60.00022888270905,
1,1,timed,12,sitting,buffer,buffer,dashed,triangle,yellow,stimuli/dashed-rectangle.png,stimuli/yellow-triangle.png,2,,,,,,,,,,,,,0,0,0,0,,,,,,,,,,,,,,,,,,,,,,,,,,,,,,,,,,,,,,,,,,,,,,,,,,,,,,,,,,,,,,,,,,,,,,,,,,,,,,,,,,,1636136629.3141887,,,,,,,,,,90.54306697845459,None,,,,,,,,,,,,,,,,,88.76338410377502,None,89.75281119346619,None,2,1,0.6663768291473389,89.75281119346619,None,,,,,,,,,,,,,,,,,,,,,,,,,,8005,001,12,2021_Nov_05_1322,task-switching-replication,2021.2.3,60.00022888270905,
1,2,timed,12,sitting,switch,congruant,solid,square,blue,stimuli/solid-rectangle.png,stimuli/blue-square.png,2,,,,,,,,,,,,,0,1,1,1,,,,,,,,,,,,,,,,,,,,,,,,,,,,,,,,,,,,,,,,,,,,,,,,,,,,,,,,,,,,,,,,,,,,,,,,,,,,,,,,,,,1636136631.3810973,,,,,,,,,,92.61064910888672,None,,,,,,,,,,,,,,,,,90.77245116233826,None,91.76198220252991,None,2,1,0.7370610237121582,91.76198220252991,None,,,,,,,,,,,,,,,,,,,,,,,,,,8005,001,12,2021_Nov_05_1322,task-switching-replication,2021.2.3,60.00022888270905,
1,3,timed,12,sitting,switch,incongruant,dashed,square,yellow,stimuli/dashed-rectangle.png,stimuli/yellow-square.png,1,,,,,,,,,,,,,0,2,2,2,,,,,,,,,,,,,,,,,,,,,,,,,,,,,,,,,,,,,,,,,,,,,,,,,,,,,,,,,,,,,,,,,,,,,,,,,,,,,,,,,,,1636136633.2731628,,,,,,,,,,94.5020501613617,None,,,,,,,,,,,,,,,,,92.83998608589172,None,93.82981300354004,None,1,1,0.5288560390472412,93.82981300354004,None,,,,,,,,,,,,,,,,,,,,,,,,,,8005,001,12,2021_Nov_05_1322,task-switching-replication,2021.2.3,60.00022888270905,
1,4,timed,12,sitting,noswitch,incongruant,dashed,triangle,yellow,stimuli/dashed-rectangle.png,stimuli/yellow-triangle.png,2,,,,,,,,,,,,,0,3,3,3,,,,,,,,,,,,,,,,,,,,,,,,,,,,,,,,,,,,,,,,,,,,,,,,,,,,,,,,,,,,,,,,,,,,,,,,,,,,,,,,,,,1636136635.165115,,,,,,,,,,96.39388513565063,None,,,,,,,,,,,,,,,,,94.73214817047119,None,95.72129511833191,None,2,1,0.5292079448699951,95.72129511833191,None,,,,,,,,,,,,,,,,,,,,,,,,,,8005,001,12,2021_Nov_05_1322,task-switching-replication,2021.2.3,60.00022888270905,
1,5,timed,12,sitting,noswitch,incongruant,dashed,square,blue,stimuli/dashed-rectangle.png,stimuli/blue-square.png,1,,,,,,,,,,,,,0,4,4,4,,,,,,,,,,,,,,,,,,,,,,,,,,,,,,,,,,,,,,,,,,,,,,,,,,,,,,,,,,,,,,,,,,,,,,,,,,,,,,,,,,,1636136637.0557244,,,,,,,,,,98.28463196754456,None,,,,,,,,,,,,,,,,,96.62325406074524,None,97.61308813095093,None,1,1,0.522697925567627,97.61308813095093,None,,,,,,,,,,,,,,,,,,,,,,,,,,8005,001,12,2021_Nov_05_1322,task-switching-replication,2021.2.3,60.00022888270905,
1,6,timed,12,sitting,switch,incongruant,solid,triangle,blue,stimuli/solid-rectangle.png,stimuli/blue-triangle.png,2,,,,,,,,,,,,,0,5,5,5,,,,,,,,,,,,,,,,,,,,,,,,,,,,,,,,,,,,,,,,,,,,,,,,,,,,,,,,,,,,,,,,,,,,,,,,,,,,,,,,,,,1636136638.8312988,,,,,,,,,,100.05994415283203,None,,,,,,,,,,,,,,,,,98.51413297653198,None,99.50344109535217,None,2,1,0.3932521343231201,99.50344109535217,None,,,,,,,,,,,,,,,,,,,,,,,,,,8005,001,12,2021_Nov_05_1322,task-switching-replication,2021.2.3,60.00022888270905,
1,7,timed,12,sitting,noswitch,congruant,solid,square,blue,stimuli/solid-rectangle.png,stimuli/blue-square.png,2,,,,,,,,,,,,,0,6,6,6,,,,,,,,,,,,,,,,,,,,,,,,,,,,,,,,,,,,,,,,,,,,,,,,,,,,,,,,,,,,,,,,,,,,,,,,,,,,,,,,,,,1636136640.6021671,,,,,,,,,,101.83148908615112,None,,,,,,,,,,,,,,,,,100.28928208351135,None,101.2791211605072,None,2,1,0.4168119430541992,101.2791211605072,None,,,,,,,,,,,,,,,,,,,,,,,,,,8005,001,12,2021_Nov_05_1322,task-switching-replication,2021.2.3,60.00022888270905,
1,8,timed,12,sitting,noswitch,incongruant,solid,square,yellow,stimuli/solid-rectangle.png,stimuli/yellow-square.png,1,,,,,,,,,,,,,0,7,7,7,,,,,,,,,,,,,,,,,,,,,,,,,,,,,,,,,,,,,,,,,,,,,,,,,,,,,,,,,,,,,,,,,,,,,,,,,,,,,,,,,,,1636136642.25258,,,,,,,,,,103.48214197158813,None,,,,,,,,,,,,,,,,,102.05980110168457,None,103.04852104187012,None,1,1,0.3237879276275635,103.04852104187012,None,,,,,,,,,,,,,,,,,,,,,,,,,,8005,001,12,2021_Nov_05_1322,task-switching-replication,2021.2.3,60.00022888270905,
1,9,timed,12,sitting,switch,incongruant,dashed,triangle,blue,stimuli/dashed-rectangle.png,stimuli/blue-triangle.png,2,,,,,,,,,,,,,0,8,8,8,,,,,,,,,,,,,,,,,,,,,,,,,,,,,,,,,,,,,,,,,,,,,,,,,,,,,,,,,,,,,,,,,,,,,,,,,,,,,,,,,,,1636136644.0265644,,,,,,,,,,105.25524616241455,None,,,,,,,,,,,,,,,,,103.71158409118652,None,104.70060801506042,None,2,1,0.431102991104126,104.70060801506042,None,,,,,,,,,,,,,,,,,,,,,,,,,,8005,001,12,2021_Nov_05_1322,task-switching-replication,2021.2.3,60.00022888270905,
1,10,timed,12,sitting,noswitch,congruant,dashed,triangle,blue,stimuli/dashed-rectangle.png,stimuli/blue-triangle.png,2,,,,,,,,,,,,,0,9,9,9,,,,,,,,,,,,,,,,,,,,,,,,,,,,,,,,,,,,,,,,,,,,,,,,,,,,,,,,,,,,,,,,,,,,,,,,,,,,,,,,,,,1636136645.7977781,,,,,,,,,,107.0273060798645,None,,,,,,,,,,,,,,,,,105.48464298248291,None,106.47488307952881,None,2,1,0.4409329891204834,106.47488307952881,None,,,,,,,,,,,,,,,,,,,,,,,,,,8005,001,12,2021_Nov_05_1322,task-switching-replication,2021.2.3,60.00022888270905,
1,11,timed,12,sitting,noswitch,congruant,dashed,triangle,yellow,stimuli/dashed-rectangle.png,stimuli/yellow-triangle.png,2,,,,,,,,,,,,,0,10,10,10,,,,,,,,,,,,,,,,,,,,,,,,,,,,,,,,,,,,,,,,,,,,,,,,,,,,,,,,,,,,,,,,,,,,,,,,,,,,,,,,,,,1636136647.569112,,,,,,,,,,108.79874420166016,None,,,,,,,,,,,,,,,,,107.25661706924438,None,108.2463071346283,None,2,1,0.41457700729370117,108.2463071346283,None,,,,,,,,,,,,,,,,,,,,,,,,,,8005,001,12,2021_Nov_05_1322,task-switching-replication,2021.2.3,60.00022888270905,
1,12,timed,12,sitting,switch,congruant,solid,triangle,blue,stimuli/solid-rectangle.png,stimuli/blue-triangle.png,2,,,,,,,,,,,,,0,11,11,11,,,,,,,,,,,,,,,,,,,,,,,,,,,,,,,,,,,,,,,,,,,,,,,,,,,,,,,,,,,,,,,,,,,,,,,,,,,,,,,,,,,1636136649.2805028,,,,,,,,,,110.5100200176239,None,,,,,,,,,,,,,,,,,109.02848315238953,None,110.0172290802002,None,2,1,0.3935120105743408,110.0172290802002,None,,,,,,,,,,,,,,,,,,,,,,,,,,8005,001,12,2021_Nov_05_1322,task-switching-replication,2021.2.3,60.00022888270905,
1,13,timed,12,sitting,switch,incongruant,dashed,square,blue,stimuli/dashed-rectangle.png,stimuli/blue-square.png,1,,,,,,,,,,,,,0,12,12,12,,,,,,,,,,,,,,,,,,,,,,,,,,,,,,,,,,,,,,,,,,,,,,,,,,,,,,,,,,,,,,,,,,,,,,,,,,,,,,,,,,,1636136651.4081795,,,,,,,,,,112.63713908195496,None,,,,,,,,,,,,,,,,,110.73931217193604,None,111.73017716407776,None,1,1,0.801602840423584,111.73017716407776,None,,,,,,,,,,,,,,,,,,,,,,,,,,8005,001,12,2021_Nov_05_1322,task-switching-replication,2021.2.3,60.00022888270905,
1,14,timed,12,sitting,switch,congruant,solid,triangle,yellow,stimuli/solid-rectangle.png,stimuli/yellow-triangle.png,1,,,,,,,,,,,,,0,13,13,13,0,0,0,0,,,,,,,,,,,,,,,,,,,,,,,,,,,,,,,,,,,,,,,,,,,,,,,,,,,,,,,,,,,,,,,,,,,,,,,,,,,,,,,1636136653.5365129,,,,,,,,,,,,,,,,,,,,,,,,,,,,112.8659131526947,None,113.85514616966248,None,2,0,0.7515418529510498,113.85514616966248,None,114.73782753944397,115.75571703910828,114.77023911476135,None,,,,,,,,,,,,,,,,,,,,,,8005,001,12,2021_Nov_05_1322,task-switching-replication,2021.2.3,60.00022888270905,
1,14,timed,12,sitting,switch,congruant,solid,triangle,yellow,stimuli/solid-rectangle.png,stimuli/yellow-triangle.png,1,,,,,,,,,,,,,0,13,13,13,,,,,,,,,,,,,,,,,,,,,,,,,,,,,,,,,,,,,,,,,,,,,,,,,,,,,,,,,,,,,,,,,,,,,,,,,,,,,,,,,,,,,,,,,,,,,119.76583814620972,None,,,,,,,,,,,,,,,,,,,,,,,,,,,,,,,,,,,,,,,,,,,,,,,,,,,8005,001,12,2021_Nov_05_1322,task-switching-replication,2021.2.3,60.00022888270905,
1,15,timed,12,sitting,switch,incongruant,dashed,triangle,blue,stimuli/dashed-rectangle.png,stimuli/blue-triangle.png,2,,,,,,,,,,,,,0,14,14,14,,,,,,,,,,,,,,,,,,,,,,,,,,,,,,,,,,,,,,,,,,,,,,,,,,,,,,,,,,,,,,,,,,,,,,,,,,,,,,,,,,,1636136660.603601,,,,,,,,,,121.83356714248657,None,,,,,,,,,,,,,,,,,119.99511504173279,None,120.98430609703064,None,2,1,0.7403380870819092,120.98430609703064,None,,,,,,,,,,,,,,,,,,,,,,,,,,8005,001,12,2021_Nov_05_1322,task-switching-replication,2021.2.3,60.00022888270905,
1,16,timed,12,sitting,noswitch,incongruant,dashed,square,yellow,stimuli/dashed-rectangle.png,stimuli/yellow-square.png,1,,,,,,,,,,,,,0,15,15,15,,,,,,,,,,,,,,,,,,,,,,,,,,,,,,,,,,,,,,,,,,,,,,,,,,,,,,,,,,,,,,,,,,,,,,,,,,,,,,,,,,,1636136662.493515,,,,,,,,,,123.72225618362427,None,,,,,,,,,,,,,,,,,122.06296610832214,None,123.05207204818726,None,1,1,0.5412430763244629,123.05207204818726,None,,,,,,,,,,,,,,,,,,,,,,,,,,8005,001,12,2021_Nov_05_1322,task-switching-replication,2021.2.3,60.00022888270905,
1,17,timed,12,sitting,noswitch,congruant,dashed,square,blue,stimuli/dashed-rectangle.png,stimuli/blue-square.png,1,,,,,,,,,,,,,0,16,16,16,,,,,,,,,,,,,,,,,,,,,,,,,,,,,,,,,,,,,,,,,,,,,,,,,,,,,,,,,,,,,,,,,,,,,,,,,,,,,,,,,,,1636136664.5015693,,,,,,,,,,125.7309741973877,None,,,,,,,,,,,,,,,,,123.95153307914734,None,124.94135308265686,None,1,1,0.6563129425048828,124.94135308265686,None,,,,,,,,,,,,,,,,,,,,,,,,,,8005,001,12,2021_Nov_05_1322,task-switching-replication,2021.2.3,60.00022888270905,
1,18,timed,12,sitting,switch,congruant,solid,square,yellow,stimuli/solid-rectangle.png,stimuli/yellow-square.png,1,,,,,,,,,,,,,0,17,17,17,,,,,,,,,,,,,,,,,,,,,,,,,,,,,,,,,,,,,,,,,,,,,,,,,,,,,,,,,,,,,,,,,,,,,,,,,,,,,,,,,,,1636136666.629035,,,,,,,,,,127.85860705375671,None,,,,,,,,,,,,,,,,,125.96042203903198,None,126.95049905776978,None,1,1,0.7741940021514893,126.95049905776978,None,,,,,,,,,,,,,,,,,,,,,,,,,,8005,001,12,2021_Nov_05_1322,task-switching-replication,2021.2.3,60.00022888270905,
1,19,timed,12,sitting,noswitch,congruant,solid,triangle,yellow,stimuli/solid-rectangle.png,stimuli/yellow-triangle.png,1,,,,,,,,,,,,,0,18,18,18,,,,,,,,,,,,,,,,,,,,,,,,,,,,,,,,,,,,,,,,,,,,,,,,,,,,,,,,,,,,,,,,,,,,,,,,,,,,,,,,,,,1636136668.6973145,,,,,,,,,,129.92670512199402,None,,,,,,,,,,,,,,,,,128.08767700195312,None,129.07807302474976,None,1,1,0.726416826248169,129.07807302474976,None,,,,,,,,,,,,,,,,,,,,,,,,,,8005,001,12,2021_Nov_05_1322,task-switching-replication,2021.2.3,60.00022888270905,
1,20,timed,12,sitting,switch,congruant,dashed,square,yellow,stimuli/dashed-rectangle.png,stimuli/yellow-square.png,1,,,,,,,,,,,,,0,19,19,19,,,,,,,,,,,,,,,,,,,,,,,,,,,,,,,,,,,,,,,,,,,,,,,,,,,,,,,,,,,,,,,,,,,,,,,,,,,,,,,,,,,1636136670.5868227,,,,,,,,,,131.81639504432678,None,,,,,,,,,,,,,,,,,130.15580415725708,None,131.14550304412842,None,1,1,0.5170600414276123,131.14550304412842,None,,,,,,,,,,,,,,,,,,,,,,,,,,8005,001,12,2021_Nov_05_1322,task-switching-replication,2021.2.3,60.00022888270905,
1,21,timed,12,sitting,switch,incongruant,solid,triangle,blue,stimuli/solid-rectangle.png,stimuli/blue-triangle.png,2,,,,,,,,,,,,,0,20,20,20,,,,,,,,,,,,,,,,,,,,,,,,,,,,,,,,,,,,,,,,,,,,,,,,,,,,,,,,,,,,,,,,,,,,,,,,,,,,,,,,,,,1636136672.5993733,,,,,,,,,,133.82811307907104,None,,,,,,,,,,,,,,,,,132.04640316963196,None,133.03676104545593,None,2,1,0.6429340839385986,133.03676104545593,None,,,,,,,,,,,,,,,,,,,,,,,,,,8005,001,12,2021_Nov_05_1322,task-switching-replication,2021.2.3,60.00022888270905,
1,22,timed,12,sitting,noswitch,incongruant,solid,square,yellow,stimuli/solid-rectangle.png,stimuli/yellow-square.png,1,,,,,,,,,,,,,0,21,21,21,,,,,,,,,,,,,,,,,,,,,,,,,,,,,,,,,,,,,,,,,,,,,,,,,,,,,,,,,,,,,,,,,,,,,,,,,,,,,,,,,,,1636136674.665418,,,,,,,,,,135.8947241306305,None,,,,,,,,,,,,,,,,,134.05764412879944,None,135.04679107666016,None,1,1,0.7419710159301758,135.04679107666016,None,,,,,,,,,,,,,,,,,,,,,,,,,,8005,001,12,2021_Nov_05_1322,task-switching-replication,2021.2.3,60.00022888270905,
1,23,timed,12,sitting,noswitch,incongruant,solid,square,blue,stimuli/solid-rectangle.png,stimuli/blue-square.png,2,,,,,,,,,,,,,0,22,22,22,,,,,,,,,,,,,,,,,,,,,,,,,,,,,,,,,,,,,,,,,,,,,,,,,,,,,,,,,,,,,,,,,,,,,,,,,,,,,,,,,,,1636136676.9109704,,,,,,,,,,138.14023113250732,None,,,,,,,,,,,,,,,,,136.12408900260925,None,137.11408114433289,None,2,1,0.9207239151000977,137.11408114433289,None,,,,,,,,,,,,,,,,,,,,,,,,,,8005,001,12,2021_Nov_05_1322,task-switching-replication,2021.2.3,60.00022888270905,
1,24,timed,12,sitting,noswitch,incongruant,solid,triangle,yellow,stimuli/solid-rectangle.png,stimuli/yellow-triangle.png,1,,,,,,,,,,,,,0,23,23,23,,,,,,,,,,,,,,,,,,,,,,,,,,,,,,,,,,,,,,,,,,,,,,,,,,,,,,,,,,,,,,,,,,,,,,,,,,,,,,,,,,,1636136678.6832,,,,,,,,,,139.91207218170166,None,,,,,,,,,,,,,,,,,138.36896419525146,None,139.358234167099,None,1,1,0.4145779609680176,139.358234167099,None,,,,,,,,,,,,,,,,,,,,,,,,,,8005,001,12,2021_Nov_05_1322,task-switching-replication,2021.2.3,60.00022888270905,
1,1,experiment,12,sitting,buffer,buffer,dashed,square,blue,stimuli/dashed-rectangle.png,stimuli/blue-square.png,1,,,,,,,,,,,,,,,,,,,,,,,,,0,0,0,0,0,0,0,0,0,0,0,0,,,,,,,,,140.15623211860657,None,2,3.7685470581054688,140.15623211860657,None,,,,,,,,,,,,,,,,,,,,,,,,,,,,,,,,,,,,,,,,,,,,,,,,,1636136733.670099,,,,,,,,,,194.89931416511536,None,,,,,,,,,,,,,,,,,,,,,,,,,,,,,,144.05919218063354,None,1,45.788280963897705,144.05919218063354,None,189.9879560470581,None,2,3.1637070178985596,189.9879560470581,None,193.29458212852478,None,194.2850420475006,None,1,1,0.47033095359802246,194.2850420475006,None,8005,001,12,2021_Nov_05_1322,task-switching-replication,2021.2.3,60.00022888270905,
1,2,experiment,12,sitting,noswitch,incongruant,dashed,triangle,blue,stimuli/dashed-rectangle.png,stimuli/blue-triangle.png,2,,,,,,,,,,,,,,,,,,,,,,,,,0,0,0,0,0,0,0,0,0,1,1,1,,,,,,,,,,,,,,,,,,,,,,,,,,,,,,,,,,,,,,,,,,,,,,,,,,,,,,,,,,,,,,,1636136735.3825548,,,,,,,,,,196.61191415786743,None,,,,,,,,,,,,,,,,,,,,,,,,,,,,,,,,,,,,,,,,,,195.12917304039001,None,196.1184961795807,None,2,1,0.38544511795043945,196.1184961795807,None,8005,001,12,2021_Nov_05_1322,task-switching-replication,2021.2.3,60.00022888270905,
1,3,experiment,12,sitting,switch,congruant,solid,triangle,blue,stimuli/solid-rectangle.png,stimuli/blue-triangle.png,2,,,,,,,,,,,,,,,,,,,,,,,,,0,0,0,0,0,0,0,0,0,2,2,2,,,,,,,,,,,,,,,,,,,,,,,,,,,,,,,,,,,,,,,,,,,,,,,,,,,,,,,,,,,,,,,1636136737.1538467,,,,,,,,,,198.3834731578827,None,,,,,,,,,,,,,,,,,,,,,,,,,,,,,,,,,,,,,,,,,,196.84175515174866,None,197.83119416236877,None,2,1,0.4511280059814453,197.83119416236877,None,8005,001,12,2021_Nov_05_1322,task-switching-replication,2021.2.3,60.00022888270905,
1,4,experiment,12,sitting,noswitch,congruant,solid,triangle,blue,stimuli/solid-rectangle.png,stimuli/blue-triangle.png,2,,,,,,,,,,,,,,,,,,,,,,,,,0,0,0,0,0,0,0,0,0,3,3,3,,,,,,,,,,,,,,,,,,,,,,,,,,,,,,,,,,,,,,,,,,,,,,,,,,,,,,,,,,,,,,,1636136738.9838178,,,,,,,,,,200.2135410308838,None,,,,,,,,,,,,,,,,,,,,,,,,,,,,,,,,,,,,,,,,,,198.61302709579468,None,199.60216403007507,None,2,1,0.5061240196228027,199.60216403007507,None,8005,001,12,2021_Nov_05_1322,task-switching-replication,2021.2.3,60.00022888270905,
1,5,experiment,12,sitting,switch,incongruant,dashed,square,blue,stimuli/dashed-rectangle.png,stimuli/blue-square.png,1,,,,,,,,,,,,,,,,,,,,,,,,,0,0,0,0,0,0,0,0,0,4,4,4,,,,,,,,,,,,,,,,,,,,,,,,,,,,,,,,,,,,,,,,,,,,,,,,,,,,,,,,,,,,,,,1636136741.052793,,,,,,,,,,202.28166508674622,None,,,,,,,,,,,,,,,,,,,,,,,,,,,,,,,,,,,,,,,,,,200.44278001785278,None,201.4314000606537,None,1,1,0.711097002029419,201.4314000606537,None,8005,001,12,2021_Nov_05_1322,task-switching-replication,2021.2.3,60.00022888270905,
1,6,experiment,12,sitting,noswitch,incongruant,dashed,triangle,blue,stimuli/dashed-rectangle.png,stimuli/blue-triangle.png,2,,,,,,,,,,,,,,,,,,,,,,,,,0,0,0,0,0,0,0,0,0,5,5,5,,,,,,,,,,,,,,,,,,,,,,,,,,,,,,,,,,,,,,,,,,,,,,,,,,,,,,,,,,,,,,,1636136742.8828986,,,,,,,,,,204.11284017562866,None,,,,,,,,,,,,,,,,,,,,,,,,,,,,,,,,,,,,,,,,,,202.51111817359924,None,203.5014832019806,None,2,1,0.4961130619049072,203.5014832019806,None,8005,001,12,2021_Nov_05_1322,task-switching-replication,2021.2.3,60.00022888270905,
1,7,experiment,12,sitting,noswitch,incongruant,dashed,square,yellow,stimuli/dashed-rectangle.png,stimuli/yellow-square.png,1,,,,,,,,,,,,,,,,,,,,,,,,,0,0,0,0,0,0,0,0,0,6,6,6,,,,,,,,,,,,,,,,,,,,,,,,,,,,,,,,,,,,,,,,,,,,,,,,,,,,,,,,,,,,,,,1636136744.660192,,,,,,,,,,205.88901805877686,None,,,,,,,,,,,,,,,,,,,,,,,,,,,,,,,,,,,,,,,,,,204.34317207336426,None,205.33322405815125,None,1,1,0.39231395721435547,205.33322405815125,None,8005,001,12,2021_Nov_05_1322,task-switching-replication,2021.2.3,60.00022888270905,
1,8,experiment,12,sitting,noswitch,incongruant,dashed,triangle,yellow,stimuli/dashed-rectangle.png,stimuli/yellow-triangle.png,2,,,,,,,,,,,,,,,,,,,,,,,,,0,0,0,0,0,0,0,0,0,7,7,7,,,,,,,,,,,,,,,,,,,,,,,,,,,,,,,,,,,,,,,,,,,,,,,,,,,,,,,,,,,,,,,1636136746.9671059,,,,,,,,,,208.19595217704773,None,,,,,,,,,,,,,,,,,,,,,,,,,,,,,,,,,,,,,,,,,,206.11860609054565,None,207.10878801345825,None,2,1,0.9337849617004395,207.10878801345825,None,8005,001,12,2021_Nov_05_1322,task-switching-replication,2021.2.3,60.00022888270905,
1,9,experiment,12,sitting,noswitch,congruant,dashed,triangle,blue,stimuli/dashed-rectangle.png,stimuli/blue-triangle.png,2,,,,,,,,,,,,,,,,,,,,,,,,,0,0,0,0,0,0,0,0,0,8,8,8,,,,,,,,,,,,,,,,,,,,,,,,,,,,,,,,,,,,,,,,,,,,,,,,,,,,,,,,,,,,,,,1636136749.330626,,,,,,,,,,210.56013917922974,None,,,,,,,,,,,,,,,,,,,,,,,,,,,,,,,,,,,,,,,,,,208.4258291721344,None,209.4147810935974,None,2,1,1.004591941833496,209.4147810935974,None,8005,001,12,2021_Nov_05_1322,task-switching-replication,2021.2.3,60.00022888270905,
1,10,experiment,12,sitting,switch,congruant,solid,triangle,blue,stimuli/solid-rectangle.png,stimuli/blue-triangle.png,2,,,,,,,,,,,,,,,,,,,,,,,,,0,0,0,0,0,0,0,0,0,9,9,9,,,,,,,,,,,,,,,,,,,,,,,,,,,,,,,,,,,,,,,,,,,,,,,,,,,,,,,,,,,,,,,1636136751.0426242,,,,,,,,,,212.27351903915405,None,,,,,,,,,,,,,,,,,,,,,,,,,,,,,,,,,,,,,,,,,,210.78955602645874,None,211.7792191505432,None,2,1,0.38598203659057617,211.7792191505432,None,8005,001,12,2021_Nov_05_1322,task-switching-replication,2021.2.3,60.00022888270905,
1,11,experiment,12,sitting,switch,congruant,dashed,triangle,blue,stimuli/dashed-rectangle.png,stimuli/blue-triangle.png,2,,,,,,,,,,,,,,,,,,,,,,,,,0,0,0,0,0,0,0,0,0,10,10,10,,,,,,,,,,,,,,,,,,,,,,,,,,,,,,,,,,,,,,,,,,,,,,,,,,,,,,,,,,,,,,,1636136752.8742785,,,,,,,,,,214.10375809669495,None,,,,,,,,,,,,,,,,,,,,,,,,,,,,,,,,,,,,,,,,,,212.50313305854797,None,213.49239706993103,None,2,1,0.46578001976013184,213.49239706993103,None,8005,001,12,2021_Nov_05_1322,task-switching-replication,2021.2.3,60.00022888270905,
1,12,experiment,12,sitting,switch,congruant,solid,square,blue,stimuli/solid-rectangle.png,stimuli/blue-square.png,2,,,,,,,,,,,,,,,,,,,,,,,,,0,0,0,0,0,0,0,0,0,11,11,11,,,,,,,,,,,,,,,,,,,,,,,,,,,,,,,,,,,,,,,,,,,,,,,,,,,,,,,,,,,,,,,1636136754.9423218,,,,,,,,,,216.17194199562073,None,,,,,,,,,,,,,,,,,,,,,,,,,,,,,,,,,,,,,,,,,,214.33331513404846,None,215.32295417785645,None,2,1,0.7402389049530029,215.32295417785645,None,8005,001,12,2021_Nov_05_1322,task-switching-replication,2021.2.3,60.00022888270905,
1,13,experiment,12,sitting,noswitch,congruant,solid,square,blue,stimuli/solid-rectangle.png,stimuli/blue-square.png,2,,,,,,,,,,,,,,,,,,,,,,,,,0,0,0,0,0,0,0,0,0,12,12,12,,,,,,,,,,,,,,,,,,,,,,,,,,,,,,,,,,,,,,,,,,,,,,,,,,,,,,,,,,,,,,,1636136756.655147,,,,,,,,,,217.88570404052734,None,,,,,,,,,,,,,,,,,,,,,,,,,,,,,,,,,,,,,,,,,,216.40213918685913,None,217.39169311523438,None,2,1,0.3766939640045166,217.39169311523438,None,8005,001,12,2021_Nov_05_1322,task-switching-replication,2021.2.3,60.00022888270905,
1,14,experiment,12,sitting,switch,incongruant,dashed,square,blue,stimuli/dashed-rectangle.png,stimuli/blue-square.png,1,,,,,,,,,,,,,,,,,,,,,,,,,0,0,0,0,0,0,0,0,0,13,13,13,,,,,,,,,,,,,,,,,,,,,,,,,,,,,,,,,,,,,,,,,,,,,,,,,,,,,,,,,,,,,,,1636136758.9020662,,,,,,,,,,220.13108897209167,None,,,,,,,,,,,,,,,,,,,,,,,,,,,,,,,,,,,,,,,,,,218.11507296562195,None,219.10448598861694,None,1,1,0.9119269847869873,219.10448598861694,None,8005,001,12,2021_Nov_05_1322,task-switching-replication,2021.2.3,60.00022888270905,
1,15,experiment,12,sitting,switch,incongruant,solid,triangle,blue,stimuli/solid-rectangle.png,stimuli/blue-triangle.png,2,,,,,,,,,,,,,,,,,,,,,,,,,0,0,0,0,0,0,0,0,0,14,14,14,,,,,,,,,,,,,,,,,,,,,,,,,,,,,,,,,,,,,,,,,,,,,,,,,,,,,,,,,,,,,,,1636136760.971431,,,,,,,,,,222.20053815841675,None,,,,,,,,,,,,,,,,,,,,,,,,,,,,,,,,,,,,,,,,,,220.36066007614136,None,221.35092401504517,None,2,1,0.6955709457397461,221.35092401504517,None,8005,001,12,2021_Nov_05_1322,task-switching-replication,2021.2.3,60.00022888270905,
1,16,experiment,12,sitting,switch,incongruant,dashed,square,yellow,stimuli/dashed-rectangle.png,stimuli/yellow-square.png,1,,,,,,,,,,,,,,,,,,,,,,,,,0,0,0,0,0,0,0,0,0,15,15,15,,,,,,,,,,,,,,,,,,,,,,,,,,,,,,,,,,,,,,,,,,,,,,,,,,,,,,,,,,,,,,,1636136762.8061206,,,,,,,,,,224.03509712219238,None,,,,,,,,,,,,,,,,,,,,,,,,,,,,,,,,,,,,,,,,,,222.42979502677917,None,223.41928005218506,None,1,1,0.47675395011901855,223.41928005218506,None,8005,001,12,2021_Nov_05_1322,task-switching-replication,2021.2.3,60.00022888270905,
1,17,experiment,12,sitting,switch,incongruant,solid,square,blue,stimuli/solid-rectangle.png,stimuli/blue-square.png,2,,,,,,,,,,,,,,,,,,,,,,,,,0,0,0,0,0,0,0,0,0,16,16,16,,,,,,,,,,,,,,,,,,,,,,,,,,,,,,,,,,,,,,,,,,,,,,,,,,,,,,,,,,,,,,,1636136764.8152514,,,,,,,,,,226.0441620349884,None,,,,,,,,,,,,,,,,,,,,,,,,,,,,,,,,,,,,,,,,,,224.26450300216675,None,225.2546181678772,None,2,1,0.650723934173584,225.2546181678772,None,8005,001,12,2021_Nov_05_1322,task-switching-replication,2021.2.3,60.00022888270905,
1,18,experiment,12,sitting,switch,congruant,dashed,triangle,blue,stimuli/dashed-rectangle.png,stimuli/blue-triangle.png,2,,,,,,,,,,,,,,,,,,,,,,,,,0,0,0,0,0,0,0,0,0,17,17,17,,,,,,,,,,,,,,,,,,,,,,,,,,,,,,,,,,,,,,,,,,,,,,,,,,,,,,,,,,,,,,,1636136766.58669,,,,,,,,,,227.8162281513214,None,,,,,,,,,,,,,,,,,,,,,,,,,,,,,,,,,,,,,,,,,,226.27367401123047,None,227.26368713378906,None,2,1,0.4185910224914551,227.26368713378906,None,8005,001,12,2021_Nov_05_1322,task-switching-replication,2021.2.3,60.00022888270905,
1,19,experiment,12,sitting,noswitch,congruant,dashed,triangle,yellow,stimuli/dashed-rectangle.png,stimuli/yellow-triangle.png,2,,,,,,,,,,,,,,,,,,,,,,,,,0,0,0,0,0,0,0,0,0,18,18,18,,,,,,,,,,,,,,,,,,,,,,,,,,,,,,,,,,,,,,,,,,,,,,,,,,,,,,,,,,,,,,,1636136768.298917,,,,,,,,,,229.52857208251953,None,,,,,,,,,,,,,,,,,,,,,,,,,,,,,,,,,,,,,,,,,,228.04540419578552,None,229.0355579853058,None,2,1,0.3825340270996094,229.0355579853058,None,8005,001,12,2021_Nov_05_1322,task-switching-replication,2021.2.3,60.00022888270905,
1,20,experiment,12,sitting,noswitch,incongruant,dashed,square,blue,stimuli/dashed-rectangle.png,stimuli/blue-square.png,1,,,,,,,,,,,,,,,,,,,,,,,,,0,0,0,0,0,0,0,0,0,19,19,19,,,,,,,,,,,,,,,,,,,,,,,,,,,,,,,,,,,,,,,,,,,,,,,,,,,,,,,,,,,,,,,1636136770.249149,,,,,,,,,,231.47815704345703,None,,,,,,,,,,,,,,,,,,,,,,,,,,,,,,,,,,,,,,,,,,229.75817704200745,None,230.74858498573303,None,1,1,0.6195480823516846,230.74858498573303,None,8005,001,12,2021_Nov_05_1322,task-switching-replication,2021.2.3,60.00022888270905,
1,21,experiment,12,sitting,switch,congruant,solid,square,yellow,stimuli/solid-rectangle.png,stimuli/yellow-square.png,1,,,,,,,,,,,,,,,,,,,,,,,,,0,0,0,0,0,0,0,0,0,20,20,20,0,0,0,0,,,,,,,,,,,,,,,,,,,,,,,,,,,,,,,,,,,,,,,,,,,,,,,,,,,,,,,,,,,1636136772.202289,,,,,,,,,,,,,,,,,,,,,,,,,,,,,,,,,,,,,233.40363955497742,234.42237901687622,233.43555617332458,None,,,,,,,,,,,,,231.70756006240845,None,232.697359085083,None,2,0,0.5799739360809326,232.697359085083,None,8005,001,12,2021_Nov_05_1322,task-switching-replication,2021.2.3,60.00022888270905,
1,21,experiment,12,sitting,switch,congruant,solid,square,yellow,stimuli/solid-rectangle.png,stimuli/yellow-square.png,1,,,,,,,,,,,,,,,,,,,,,,,,,0,0,0,0,0,0,0,0,0,20,20,20,,,,,,,,,,,,,,,,,,,,,,,,,,,,,,,,,,,,,,,,,,,,,,,,,,,,,,,,,,,,,,,,,,,,,,,,,238.49523305892944,None,,,,,,,,,,,,,,,,,,,,,,,,,,,,,,,,,,,,,,,,,,,,,,,,,,,8005,001,12,2021_Nov_05_1322,task-switching-replication,2021.2.3,60.00022888270905,
1,22,experiment,12,sitting,noswitch,congruant,solid,square,yellow,stimuli/solid-rectangle.png,stimuli/yellow-square.png,1,,,,,,,,,,,,,,,,,,,,,,,,,0,0,0,0,0,0,0,0,0,21,21,21,,,,,,,,,,,,,,,,,,,,,,,,,,,,,,,,,,,,,,,,,,,,,,,,,,,,,,,,,,,,,,,1636136779.0344791,,,,,,,,,,240.26318407058716,None,,,,,,,,,,,,,,,,,,,,,,,,,,,,,,,,,,,,,,,,,,238.6601459980011,None,239.649405002594,None,1,1,0.4548971652984619,239.649405002594,None,8005,001,12,2021_Nov_05_1322,task-switching-replication,2021.2.3,60.00022888270905,
1,23,experiment,12,sitting,switch,congruant,dashed,square,blue,stimuli/dashed-rectangle.png,stimuli/blue-square.png,1,,,,,,,,,,,,,,,,,,,,,,,,,0,0,0,0,0,0,0,0,0,22,22,22,,,,,,,,,,,,,,,,,,,,,,,,,,,,,,,,,,,,,,,,,,,,,,,,,,,,,,,,,,,,,,,1636136781.2222722,,,,,,,,,,242.4522190093994,None,,,,,,,,,,,,,,,,,,,,,,,,,,,,,,,,,,,,,,,,,,240.4929711818695,None,241.483323097229,None,1,1,0.8511650562286377,241.483323097229,None,8005,001,12,2021_Nov_05_1322,task-switching-replication,2021.2.3,60.00022888270905,
1,24,experiment,12,sitting,switch,incongruant,solid,square,blue,stimuli/solid-rectangle.png,stimuli/blue-square.png,2,,,,,,,,,,,,,,,,,,,,,,,,,0,0,0,0,0,0,0,0,0,23,23,23,,,,,,,,,,,,,,,,,,,,,,,,,,,,,,,,,,,,,,,,,,,,,,,,,,,,,,,,,,,,,,,1636136783.2323945,,,,,,,,,,244.4612979888916,None,,,,,,,,,,,,,,,,,,,,,,,,,,,,,,,,,,,,,,,,,,242.68198204040527,None,243.6716389656067,None,2,1,0.6356160640716553,243.6716389656067,None,8005,001,12,2021_Nov_05_1322,task-switching-replication,2021.2.3,60.00022888270905,
1,25,experiment,12,sitting,noswitch,incongruant,solid,triangle,yellow,stimuli/solid-rectangle.png,stimuli/yellow-triangle.png,1,,,,,,,,,,,,,,,,,,,,,,,,,0,0,0,0,0,0,0,0,0,24,24,24,,,,,,,,,,,,,,,,,,,,,,,,,,,,,,,,,,,,,,,,,,,,,,,,,,,,,,,,,,,,,,,1636136785.0076928,,,,,,,,,,246.2365300655365,None,,,,,,,,,,,,,,,,,,,,,,,,,,,,,,,,,,,,,,,,,,244.69077014923096,None,245.68053913116455,None,1,1,0.40259218215942383,245.68053913116455,None,8005,001,12,2021_Nov_05_1322,task-switching-replication,2021.2.3,60.00022888270905,
1,26,experiment,12,sitting,switch,congruant,dashed,square,yellow,stimuli/dashed-rectangle.png,stimuli/yellow-square.png,1,,,,,,,,,,,,,,,,,,,,,,,,,0,0,0,0,0,0,0,0,0,25,25,25,,,,,,,,,,,,,,,,,,,,,,,,,,,,,,,,,,,,,,,,,,,,,,,,,,,,,,,,,,,,,,,1636136786.8975718,,,,,,,,,,248.1270351409912,None,,,,,,,,,,,,,,,,,,,,,,,,,,,,,,,,,,,,,,,,,,246.46619415283203,None,247.4561049938202,None,1,1,0.5258738994598389,247.4561049938202,None,8005,001,12,2021_Nov_05_1322,task-switching-replication,2021.2.3,60.00022888270905,
1,27,experiment,12,sitting,switch,incongruant,solid,triangle,blue,stimuli/solid-rectangle.png,stimuli/blue-triangle.png,2,,,,,,,,,,,,,,,,,,,,,,,,,0,0,0,0,0,0,0,0,0,26,26,26,,,,,,,,,,,,,,,,,,,,,,,,,,,,,,,,,,,,,,,,,,,,,,,,,,,,,,,,,,,,,,,1636136788.9161873,,,,,,,,,,250.14504408836365,None,,,,,,,,,,,,,,,,,,,,,,,,,,,,,,,,,,,,,,,,,,248.3576111793518,None,249.3474931716919,None,2,1,0.648690938949585,249.3474931716919,None,8005,001,12,2021_Nov_05_1322,task-switching-replication,2021.2.3,60.00022888270905,
1,28,experiment,12,sitting,noswitch,incongruant,solid,triangle,yellow,stimuli/solid-rectangle.png,stimuli/yellow-triangle.png,1,,,,,,,,,,,,,,,,,,,,,,,,,0,0,0,0,0,0,0,0,0,27,27,27,,,,,,,,,,,,,,,,,,,,,,,,,,,,,,,,,,,,,,,,,,,,,,,,,,,,,,,,,,,,,,,1636136791.282206,,,,,,,,,,252.51093912124634,None,,,,,,,,,,,,,,,,,,,,,,,,,,,,,,,,,,,,,,,,,,250.37319898605347,None,251.3629720211029,None,1,1,1.0041790008544922,251.3629720211029,None,8005,001,12,2021_Nov_05_1322,task-switching-replication,2021.2.3,60.00022888270905,
1,29,experiment,12,sitting,noswitch,congruant,solid,triangle,yellow,stimuli/solid-rectangle.png,stimuli/yellow-triangle.png,1,,,,,,,,,,,,,,,,,,,,,,,,,0,0,0,0,0,0,0,0,0,28,28,28,,,,,,,,,,,,,,,,,,,,,,,,,,,,,,,,,,,,,,,,,,,,,,,,,,,,,,,,,,,,,,,1636136793.115086,,,,,,,,,,254.34473514556885,None,,,,,,,,,,,,,,,,,,,,,,,,,,,,,,,,,,,,,,,,,,252.7406120300293,None,253.73300909996033,None,1,1,0.4780139923095703,253.73300909996033,None,8005,001,12,2021_Nov_05_1322,task-switching-replication,2021.2.3,60.00022888270905,
1,30,experiment,12,sitting,switch,incongruant,dashed,triangle,yellow,stimuli/dashed-rectangle.png,stimuli/yellow-triangle.png,2,,,,,,,,,,,,,,,,,,,,,,,,,0,0,0,0,0,0,0,0,0,29,29,29,,,,,0,0,0,0,,,,,,,,,,,,,,,,,,,,,,,,,,,,,,,,,,,,,,,,,,,,,,,,,,,,,,,1636136795.1854765,,,,,,,,,,,,256.3867144584656,257.40782403945923,256.4201490879059,None,,,,,,,,,,,,,,,,,,,,,,,,,,,,,,,,,,,,,,254.5739541053772,None,255.56586503982544,None,1,0,0.7491278648376465,255.56586503982544,None,8005,001,12,2021_Nov_05_1322,task-switching-replication,2021.2.3,60.00022888270905,
1,30,experiment,12,sitting,switch,incongruant,dashed,triangle,yellow,stimuli/dashed-rectangle.png,stimuli/yellow-triangle.png,2,,,,,,,,,,,,,,,,,,,,,,,,,0,0,0,0,0,0,0,0,0,29,29,29,,,,,,,,,,,,,,,,,,,,,,,,,,,,,,,,,,,,,,,,,,,,,,,,,,,,,,,,,,,,,,,,,,,,,,,,,261.42107605934143,None,,,,,,,,,,,,,,,,,,,,,,,,,,,,,,,,,,,,,,,,,,,,,,,,,,,8005,001,12,2021_Nov_05_1322,task-switching-replication,2021.2.3,60.00022888270905,
1,31,experiment,12,sitting,switch,incongruant,solid,square,yellow,stimuli/solid-rectangle.png,stimuli/yellow-square.png,1,,,,,,,,,,,,,,,,,,,,,,,,,0,0,0,0,0,0,0,0,0,30,30,30,,,,,,,,,,,,,,,,,,,,,,,,,,,,,,,,,,,,,,,,,,,,,,,,,,,,,,,,,,,,,,,1636136802.5241842,,,,,,,,,,263.7538411617279,None,,,,,,,,,,,,,,,,,,,,,,,,,,,,,,,,,,,,,,,,,,261.618155002594,None,262.60862016677856,None,1,1,1.0284888744354248,262.60862016677856,None,8005,001,12,2021_Nov_05_1322,task-switching-replication,2021.2.3,60.00022888270905,
1,32,experiment,12,sitting,noswitch,incongruant,solid,triangle,blue,stimuli/solid-rectangle.png,stimuli/blue-triangle.png,2,,,,,,,,,,,,,,,,,,,,,,,,,0,0,0,0,0,0,0,0,0,31,31,31,,,,,,,,,,,,,,,,,,,,,,,,,,,,,,,,,,,,,,,,,,,,,,,,,,,,,,,,,,,,,,,1636136804.5929463,,,,,,,,,,265.8226890563965,None,,,,,,,,,,,,,,,,,,,,,,,,,,,,,,,,,,,,,,,,,,263.98345708847046,None,264.9735150337219,None,2,1,0.7396061420440674,264.9735150337219,None,8005,001,12,2021_Nov_05_1322,task-switching-replication,2021.2.3,60.00022888270905,
1,33,experiment,12,sitting,noswitch,incongruant,solid,triangle,yellow,stimuli/solid-rectangle.png,stimuli/yellow-triangle.png,1,,,,,,,,,,,,,,,,,,,,,,,,,0,0,0,0,0,0,0,0,0,32,32,32,,,,,,,,,,,,,,,,,,,,,,,,,,,,,,,,,,,,,,,,,,,,,,,,,,,,,,,,,,,,,,,1636136807.0192237,,,,,,,,,,268.24868607521057,None,,,,,,,,,,,,,,,,,,,,,,,,,,,,,,,,,,,,,,,,,,266.0520420074463,None,267.0432779788971,None,1,1,1.089707851409912,267.0432779788971,None,8005,001,12,2021_Nov_05_1322,task-switching-replication,2021.2.3,60.00022888270905,
1,34,experiment,12,sitting,switch,incongruant,dashed,triangle,yellow,stimuli/dashed-rectangle.png,stimuli/yellow-triangle.png,2,,,,,,,,,,,,,,,,,,,,,,,,,0,0,0,0,0,0,0,0,0,33,33,33,,,,,,,,,,,,,,,,,,,,,,,,,,,,,,,,,,,,,,,,,,,,,,,,,,,,,,,,,,,,,,,1636136809.207519,,,,,,,,,,270.4361891746521,None,,,,,,,,,,,,,,,,,,,,,,,,,,,,,,,,,,,,,,,,,,268.4780180454254,None,269.4674150943756,None,2,1,0.8448429107666016,269.4674150943756,None,8005,001,12,2021_Nov_05_1322,task-switching-replication,2021.2.3,60.00022888270905,
1,35,experiment,12,sitting,noswitch,congruant,dashed,triangle,blue,stimuli/dashed-rectangle.png,stimuli/blue-triangle.png,2,,,,,,,,,,,,,,,,,,,,,,,,,0,0,0,0,0,0,0,0,0,34,34,34,,,,,,,,,,,,,,,,,,,,,,,,,,,,,,,,,,,,,,,,,,,,,,,,,,,,,,,,,,,,,,,1636136811.039439,,,,,,,,,,272.2689151763916,None,,,,,,,,,,,,,,,,,,,,,,,,,,,,,,,,,,,,,,,,,,270.6661901473999,None,271.6571171283722,None,2,1,0.48490190505981445,271.6571171283722,None,8005,001,12,2021_Nov_05_1322,task-switching-replication,2021.2.3,60.00022888270905,
1,36,experiment,12,sitting,noswitch,congruant,dashed,triangle,yellow,stimuli/dashed-rectangle.png,stimuli/yellow-triangle.png,2,,,,,,,,,,,,,,,,,,,,,,,,,0,0,0,0,0,0,0,0,0,35,35,35,,,,,,,,,,,,,,,,,,,,,,,,,,,,,,,,,,,,,,,,,,,,,,,,,,,,,,,,,,,,,,,1636136813.1073592,,,,,,,,,,274.3368721008301,None,,,,,,,,,,,,,,,,,,,,,,,,,,,,,,,,,,,,,,,,,,272.4982659816742,None,273.48790407180786,None,2,1,0.7261290550231934,273.48790407180786,None,8005,001,12,2021_Nov_05_1322,task-switching-replication,2021.2.3,60.00022888270905,
1,37,experiment,12,sitting,noswitch,incongruant,dashed,square,yellow,stimuli/dashed-rectangle.png,stimuli/yellow-square.png,1,,,,,,,,,,,,,,,,,,,,,,,,,0,0,0,0,0,0,0,0,0,36,36,36,,,,,,,,,,,,,,,,,,,,,,,,,,,,,,,,,,,,,,,,,,,,,,,,,,,,,,,,,,,,,,,1636136815.0617197,,,,,,,,,,276.2904691696167,None,,,,,,,,,,,,,,,,,,,,,,,,,,,,,,,,,,,,,,,,,,274.56653118133545,None,275.55855917930603,None,1,1,0.57840895652771,275.55855917930603,None,8005,001,12,2021_Nov_05_1322,task-switching-replication,2021.2.3,60.00022888270905,
1,38,experiment,12,sitting,noswitch,incongruant,dashed,triangle,yellow,stimuli/dashed-rectangle.png,stimuli/yellow-triangle.png,2,,,,,,,,,,,,,,,,,,,,,,,,,0,0,0,0,0,0,0,0,0,37,37,37,,,,,,,,,,,,,,,,,,,,,,,,,,,,,,,,,,,,,,,,,,,,,,,,,,,,,,,,,,,,,,,1636136817.0747945,,,,,,,,,,278.30347418785095,None,,,,,,,,,,,,,,,,,,,,,,,,,,,,,,,,,,,,,,,,,,276.5197072029114,None,277.50941801071167,None,2,1,0.6403419971466064,277.50941801071167,None,8005,001,12,2021_Nov_05_1322,task-switching-replication,2021.2.3,60.00022888270905,
1,39,experiment,12,sitting,switch,congruant,solid,square,blue,stimuli/solid-rectangle.png,stimuli/blue-square.png,2,,,,,,,,,,,,,,,,,,,,,,,,,0,0,0,0,0,0,0,0,0,38,38,38,,,,,,,,,,,,,,,,,,,,,,,,,,,,,,,,,,,,,,,,,,,,,,,,,,,,,,,,,,,,,,,1636136819.142281,,,,,,,,,,280.37191700935364,None,,,,,,,,,,,,,,,,,,,,,,,,,,,,,,,,,,,,,,,,,,278.5332570075989,None,279.5230870246887,None,2,1,0.7248308658599854,279.5230870246887,None,8005,001,12,2021_Nov_05_1322,task-switching-replication,2021.2.3,60.00022888270905,
1,40,experiment,12,sitting,switch,incongruant,dashed,square,blue,stimuli/dashed-rectangle.png,stimuli/blue-square.png,1,,,,,,,,,,,,,,,,,,,,,,,,,0,0,0,0,0,0,0,0,0,39,39,39,,,,,,,,,,,,,,,,,,,,,,,,,,,,,,,,,,,,,,,,,,,,,,,,,,,,,,,,,,,,,,,1636136821.2113388,,,,,,,,,,282.44039607048035,None,,,,,,,,,,,,,,,,,,,,,,,,,,,,,,,,,,,,,,,,,,280.60148310661316,None,281.5914640426636,None,1,1,0.7104461193084717,281.5914640426636,None,8005,001,12,2021_Nov_05_1322,task-switching-replication,2021.2.3,60.00022888270905,
1,41,experiment,12,sitting,switch,congruant,solid,triangle,yellow,stimuli/solid-rectangle.png,stimuli/yellow-triangle.png,1,,,,,,,,,,,,,,,,,,,,,,,,,0,0,0,0,0,0,0,0,0,40,40,40,0,0,0,0,,,,,,,,,,,,,,,,,,,,,,,,,,,,,,,,,,,,,,,,,,,,,,,,,,,,,,,,,,,1636136823.28078,,,,,,,,,,,,,,,,,,,,,,,,,,,,,,,,,,,,,284.4820375442505,285.5005531311035,284.5145351886749,None,,,,,,,,,,,,,282.6698660850525,None,283.6611280441284,None,2,0,0.7441282272338867,283.6611280441284,None,8005,001,12,2021_Nov_05_1322,task-switching-replication,2021.2.3,60.00022888270905,
1,41,experiment,12,sitting,switch,congruant,solid,triangle,yellow,stimuli/solid-rectangle.png,stimuli/yellow-triangle.png,1,,,,,,,,,,,,,,,,,,,,,,,,,0,0,0,0,0,0,0,0,0,40,40,40,,,,,,,,,,,,,,,,,,,,,,,,,,,,,,,,,,,,,,,,,,,,,,,,,,,,,,,,,,,,,,,,,,,,,,,,,289.51348304748535,None,,,,,,,,,,,,,,,,,,,,,,,,,,,,,,,,,,,,,,,,,,,,,,,,,,,8005,001,12,2021_Nov_05_1322,task-switching-replication,2021.2.3,60.00022888270905,
1,42,experiment,12,sitting,noswitch,congruant,solid,square,yellow,stimuli/solid-rectangle.png,stimuli/yellow-square.png,1,,,,,,,,,,,,,,,,,,,,,,,,,0,0,0,0,0,0,0,0,0,41,41,41,,,,,,,,,,,,,,,,,,,,,,,,,,,,,,,,,,,,,,,,,,,,,,,,,,,,,,,,,,,,,,,1636136830.65238,,,,,,,,,,291.8813650608063,None,,,,,,,,,,,,,,,,,,,,,,,,,,,,,,,,,,,,,,,,,,289.74312114715576,None,290.73245000839233,None,1,1,1.01957106590271,290.73245000839233,None,8005,001,12,2021_Nov_05_1322,task-switching-replication,2021.2.3,60.00022888270905,
1,43,experiment,12,sitting,switch,congruant,dashed,square,yellow,stimuli/dashed-rectangle.png,stimuli/yellow-square.png,1,,,,,,,,,,,,,,,,,,,,,,,,,0,0,0,0,0,0,0,0,0,42,42,42,,,,,,,,,,,,,,,,,,,,,,,,,,,,,,,,,,,,,,,,,,,,,,,,,,,,,,,,,,,,,,,1636136832.72042,,,,,,,,,,293.9503240585327,None,,,,,,,,,,,,,,,,,,,,,,,,,,,,,,,,,,,,,,,,,,292.11119413375854,None,293.1014189720154,None,1,1,0.6953928470611572,293.1014189720154,None,8005,001,12,2021_Nov_05_1322,task-switching-replication,2021.2.3,60.00022888270905,
1,44,experiment,12,sitting,noswitch,congruant,dashed,square,yellow,stimuli/dashed-rectangle.png,stimuli/yellow-square.png,1,,,,,,,,,,,,,,,,,,,,,,,,,0,0,0,0,0,0,0,0,0,43,43,43,,,,,,,,,,,,,,,,,,,,,,,,,,,,,,,,,,,,,,,,,,,,,,,,,,,,,,,,,,,,,,,1636136834.84832,,,,,,,,,,296.07796812057495,None,,,,,,,,,,,,,,,,,,,,,,,,,,,,,,,,,,,,,,,,,,294.1798870563507,None,295.16967010498047,None,1,1,0.7669739723205566,295.16967010498047,None,8005,001,12,2021_Nov_05_1322,task-switching-replication,2021.2.3,60.00022888270905,
1,45,experiment,12,sitting,switch,congruant,solid,triangle,yellow,stimuli/solid-rectangle.png,stimuli/yellow-triangle.png,1,,,,,,,,,,,,,,,,,,,,,,,,,0,0,0,0,0,0,0,0,0,44,44,44,,,,,,,,,,,,,,,,,,,,,,,,,,,,,,,,,,,,,,,,,,,,,,,,,,,,,,,,,,,,,,,1636136837.0342445,,,,,,,,,,298.2639181613922,None,,,,,,,,,,,,,,,,,,,,,,,,,,,,,,,,,,,,,,,,,,296.3071081638336,None,297.2967870235443,None,1,1,0.8478271961212158,297.2967870235443,None,8005,001,12,2021_Nov_05_1322,task-switching-replication,2021.2.3,60.00022888270905,
1,46,experiment,12,sitting,noswitch,congruant,solid,square,yellow,stimuli/solid-rectangle.png,stimuli/yellow-square.png,1,,,,,,,,,,,,,,,,,,,,,,,,,0,0,0,0,0,0,0,0,0,45,45,45,,,,,,,,,,,,,,,,,,,,,,,,,,,,,,,,,,,,,,,,,,,,,,,,,,,,,,,,,,,,,,,1636136839.2827384,,,,,,,,,,300.5122241973877,None,,,,,,,,,,,,,,,,,,,,,,,,,,,,,,,,,,,,,,,,,,298.49363017082214,None,299.4848041534424,None,1,1,0.892179012298584,299.4848041534424,None,8005,001,12,2021_Nov_05_1322,task-switching-replication,2021.2.3,60.00022888270905,
1,47,experiment,12,sitting,noswitch,incongruant,solid,square,blue,stimuli/solid-rectangle.png,stimuli/blue-square.png,2,,,,,,,,,,,,,,,,,,,,,,,,,0,0,0,0,0,0,0,0,0,46,46,46,,,,,,,,,,,,,,,,,,,,,,,,,,,,,,,,,,,,,,,,,,,,,,,,,,,,,,,,,,,,,,,1636136841.4720163,,,,,,,,,,302.7008891105652,None,,,,,,,,,,,,,,,,,,,,,,,,,,,,,,,,,,,,,,,,,,300.74174308776855,None,301.73152899742126,None,2,1,0.8207499980926514,301.73152899742126,None,8005,001,12,2021_Nov_05_1322,task-switching-replication,2021.2.3,60.00022888270905,
1,48,experiment,12,sitting,noswitch,incongruant,solid,square,yellow,stimuli/solid-rectangle.png,stimuli/yellow-square.png,1,,,,,,,,,,,,,,,,,,,,,,,,,0,0,0,0,0,0,0,0,0,47,47,47,,,,,,,,,,,,,,,,,,,,,,,,,,,,,,,,,,,,,,,,,,,,,,,,,,,,,,,,,,,,,,,1636136843.2871704,,,,,,,,,,304.51593017578125,None,,,,,,,,,,,,,,,,,,,,,,,,,,,,,,,,,,,,,,,,,,302.9121570587158,None,303.9019730091095,None,1,1,0.48554110527038574,303.9019730091095,None,8005,001,12,2021_Nov_05_1322,task-switching-replication,2021.2.3,60.00022888270905,
1,49,experiment,12,sitting,switch,congruant,dashed,square,blue,stimuli/dashed-rectangle.png,stimuli/blue-square.png,1,,,,,,,,,,,,,,,,,,,,,,,,,0,0,0,0,0,0,0,0,0,48,48,48,,,,,,,,,,,,,,,,,,,,,,,,,,,,,,,,,,,,,,,,,,,,,,,,,,,,,,,,,,,,,,,1636136845.475517,,,,,,,,,,306.70508098602295,None,,,,,,,,,,,,,,,,,,,,,,,,,,,,,,,,,,,,,,,,,,304.7461931705475,None,305.7364320755005,None,1,1,0.8173260688781738,305.7364320755005,None,8005,001,12,2021_Nov_05_1322,task-switching-replication,2021.2.3,60.00022888270905,
,,,12,,,,,,,,,,,,,,,,,,,,,,,,,,,,,,,,,,0,0,0,0,0,0,0,0,,,,,,,,,,,,,,,,,,,,,,,,,,,,,,,,,,,,,,,,,,,,,,,,,,,,,,,,,,,,,,,,,,,,,,,,,,,,,,,,,,,,,,,,,,,,,,,,,,,,,,,,,,,,,,,,,,,,,,,,,,,,,,,,,8005,001,12,2021_Nov_05_1322,task-switching-replication,2021.2.3,60.00022888270905,
2,1,experiment,12,sitting,buffer,buffer,dashed,triangle,yellow,stimuli/dashed-rectangle.png,stimuli/yellow-triangle.png,2,,,,,,,,,,,,,,,,,,,,,,,,,0,0,0,0,1,0,1,0,0,0,0,0,,,,,,,,,,,,,,,,,,,,,,,,,,,,,,,,,,,,,,,,,,,,,,,,,,,,,,,,,,,,,,,1636136853.706262,,,,,,,,,,314.93705701828003,None,,,,,,,,,,,,,,,,,,,,,,,,,,,,,,306.93549513816833,None,2,3.92337703704834,306.93549513816833,None,310.95476818084717,None,2,2.055076837539673,310.95476818084717,None,313.1569800376892,None,314.14647912979126,None,2,1,0.6894021034240723,314.14647912979126,None,8005,001,12,2021_Nov_05_1322,task-switching-replication,2021.2.3,60.00022888270905,
2,2,experiment,12,sitting,noswitch,incongruant,dashed,square,yellow,stimuli/dashed-rectangle.png,stimuli/yellow-square.png,1,,,,,,,,,,,,,,,,,,,,,,,,,0,0,0,0,1,0,1,0,0,1,1,1,,,,,,,,,,,,,,,,,,,,,,,,,,,,,,,,,,,,,,,,,,,,,,,,,,,,,,,,,,,,,,,1636136855.5404828,,,,,,,,,,316.7694990634918,None,,,,,,,,,,,,,,,,,,,,,,,,,,,,,,,,,,,,,,,,,,315.1675751209259,None,316.15693616867065,None,1,1,0.453887939453125,316.15693616867065,None,8005,001,12,2021_Nov_05_1322,task-switching-replication,2021.2.3,60.00022888270905,
2,3,experiment,12,sitting,noswitch,congruant,dashed,square,yellow,stimuli/dashed-rectangle.png,stimuli/yellow-square.png,1,,,,,,,,,,,,,,,,,,,,,,,,,0,0,0,0,1,0,1,0,0,2,2,2,,,,,,,,,,,,,,,,,,,,,,,,,,,,,,,,,,,,,,,,,,,,,,,,,,,,,,,,,,,,,,,1636136857.4298897,,,,,,,,,,318.6594731807709,None,,,,,,,,,,,,,,,,,,,,,,,,,,,,,,,,,,,,,,,,,,316.99920201301575,None,317.98829913139343,None,1,1,0.5157499313354492,317.98829913139343,None,8005,001,12,2021_Nov_05_1322,task-switching-replication,2021.2.3,60.00022888270905,
2,4,experiment,12,sitting,noswitch,incongruant,dashed,triangle,yellow,stimuli/dashed-rectangle.png,stimuli/yellow-triangle.png,2,,,,,,,,,,,,,,,,,,,,,,,,,0,0,0,0,1,0,1,0,0,3,3,3,,,,,,,,,,,,,,,,,,,,,,,,,,,,,,,,,,,,,,,,,,,,,,,,,,,,,,,,,,,,,,,1636136859.440251,,,,,,,,,,320.67028307914734,None,,,,,,,,,,,,,,,,,,,,,,,,,,,,,,,,,,,,,,,,,,318.8887391090393,None,319.8793671131134,None,2,1,0.6786890029907227,319.8793671131134,None,8005,001,12,2021_Nov_05_1322,task-switching-replication,2021.2.3,60.00022888270905,
2,5,experiment,12,sitting,switch,congruant,solid,square,blue,stimuli/solid-rectangle.png,stimuli/blue-square.png,2,,,,,,,,,,,,,,,,,,,,,,,,,0,0,0,0,1,0,1,0,0,4,4,4,,,,,,,,,,,,,,,,,,,,,,,,,,,,,,,,,,,,,,,,,,,,,,,,,,,,,,,,,,,,,,,1636136861.5681705,,,,,,,,,,322.79763197898865,None,,,,,,,,,,,,,,,,,,,,,,,,,,,,,,,,,,,,,,,,,,320.8995761871338,None,321.88952708244324,None,2,1,0.7662451267242432,321.88952708244324,None,8005,001,12,2021_Nov_05_1322,task-switching-replication,2021.2.3,60.00022888270905,
2,6,experiment,12,sitting,switch,congruant,dashed,triangle,blue,stimuli/dashed-rectangle.png,stimuli/blue-triangle.png,2,,,,,,,,,,,,,,,,,,,,,,,,,0,0,0,0,1,0,1,0,0,5,5,5,,,,,,,,,,,,,,,,,,,,,,,,,,,,,,,,,,,,,,,,,,,,,,,,,,,,,,,,,,,,,,,1636136863.3392115,,,,,,,,,,324.56855297088623,None,,,,,,,,,,,,,,,,,,,,,,,,,,,,,,,,,,,,,,,,,,323.02710914611816,None,324.01650500297546,None,2,1,0.42325520515441895,324.01650500297546,None,8005,001,12,2021_Nov_05_1322,task-switching-replication,2021.2.3,60.00022888270905,
2,7,experiment,12,sitting,switch,congruant,solid,square,blue,stimuli/solid-rectangle.png,stimuli/blue-square.png,2,,,,,,,,,,,,,,,,,,,,,,,,,0,0,0,0,1,0,1,0,0,6,6,6,,,,,,,,,,,,,,,,,,,,,,,,,,,,,,,,,,,,,,,,,,,,,,,,,,,,,,,,,,,,,,,1636136865.3545556,,,,,,,,,,326.5840711593628,None,,,,,,,,,,,,,,,,,,,,,,,,,,,,,,,,,,,,,,,,,,324.79826402664185,None,325.7941961288452,None,2,1,0.6484229564666748,325.7941961288452,None,8005,001,12,2021_Nov_05_1322,task-switching-replication,2021.2.3,60.00022888270905,
2,8,experiment,12,sitting,noswitch,incongruant,solid,triangle,yellow,stimuli/solid-rectangle.png,stimuli/yellow-triangle.png,1,,,,,,,,,,,,,,,,,,,,,,,,,0,0,0,0,1,0,1,0,0,7,7,7,0,0,0,0,,,,,,,,,,,,,,,,,,,,,,,,,,,,,,,,,,,,,,,,,,,,,,,,,,,,,,,,,,,1636136867.482055,,,,,,,,,,,,,,,,,,,,,,,,,,,,,,,,,,,,,328.68330454826355,329.7034170627594,328.71650218963623,None,,,,,,,,,,,,,326.8134300708771,None,327.8035809993744,None,2,0,0.7661058902740479,327.8035809993744,None,8005,001,12,2021_Nov_05_1322,task-switching-replication,2021.2.3,60.00022888270905,
2,8,experiment,12,sitting,noswitch,incongruant,solid,triangle,yellow,stimuli/solid-rectangle.png,stimuli/yellow-triangle.png,1,,,,,,,,,,,,,,,,,,,,,,,,,0,0,0,0,1,0,1,0,0,7,7,7,,,,,,,,,,,,,,,,,,,,,,,,,,,,,,,,,,,,,,,,,,,,,,,,,,,,,,,,,,,,,,,,,,,,,,,,,333.71237897872925,None,,,,,,,,,,,,,,,,,,,,,,,,,,,,,,,,,,,,,,,,,,,,,,,,,,,8005,001,12,2021_Nov_05_1322,task-switching-replication,2021.2.3,60.00022888270905,
2,9,experiment,12,sitting,noswitch,incongruant,solid,triangle,blue,stimuli/solid-rectangle.png,stimuli/blue-triangle.png,2,,,,,,,,,,,,,,,,,,,,,,,,,0,0,0,0,1,0,1,0,0,8,8,8,,,,,,,,,,,,,,,,,,,,,,,,,,,,,,,,,,,,,,,,,,,,,,,,,,,,,,,,,,,,,,,1636136874.4315066,,,,,,,,,,335.6610360145569,None,,,,,,,,,,,,,,,,,,,,,,,,,,,,,,,,,,,,,,,,,,333.94174098968506,None,334.93123412132263,None,2,1,0.614408016204834,334.93123412132263,None,8005,001,12,2021_Nov_05_1322,task-switching-replication,2021.2.3,60.00022888270905,
2,10,experiment,12,sitting,noswitch,incongruant,solid,square,yellow,stimuli/solid-rectangle.png,stimuli/yellow-square.png,1,,,,,,,,,,,,,,,,,,,,,,,,,0,0,0,0,1,0,1,0,0,9,9,9,,,,,,,,,,,,,,,,,,,,,,,,,,,,,,,,,,,,,,,,,,,,,,,,,,,,,,,,,,,,,,,1636136876.443277,,,,,,,,,,337.67180705070496,None,,,,,,,,,,,,,,,,,,,,,,,,,,,,,,,,,,,,,,,,,,335.89022397994995,None,336.880175113678,None,1,1,0.6674950122833252,336.880175113678,None,8005,001,12,2021_Nov_05_1322,task-switching-replication,2021.2.3,60.00022888270905,
2,11,experiment,12,sitting,noswitch,congruant,solid,triangle,yellow,stimuli/solid-rectangle.png,stimuli/yellow-triangle.png,1,,,,,,,,,,,,,,,,,,,,,,,,,0,0,0,0,1,0,1,0,0,10,10,10,,,,,,,,,,,,,,,,,,,,,,,,,,,,,,,,,,,,,,,,,,,,,,,,,,,,,,,,,,,,,,,1636136878.5696034,,,,,,,,,,339.79924416542053,None,,,,,,,,,,,,,,,,,,,,,,,,,,,,,,,,,,,,,,,,,,337.9010531902313,None,338.891077041626,None,1,1,0.7960071563720703,338.891077041626,None,8005,001,12,2021_Nov_05_1322,task-switching-replication,2021.2.3,60.00022888270905,
2,12,experiment,12,sitting,noswitch,congruant,solid,triangle,yellow,stimuli/solid-rectangle.png,stimuli/yellow-triangle.png,1,,,,,,,,,,,,,,,,,,,,,,,,,0,0,0,0,1,0,1,0,0,11,11,11,,,,,,,,,,,,,,,,,,,,,,,,,,,,,,,,,,,,,,,,,,,,,,,,,,,,,,,,,,,,,,,1636136880.4001634,,,,,,,,,,341.62967705726624,None,,,,,,,,,,,,,,,,,,,,,,,,,,,,,,,,,,,,,,,,,,340.0284960269928,None,341.0180621147156,None,1,1,0.46947789192199707,341.0180621147156,None,8005,001,12,2021_Nov_05_1322,task-switching-replication,2021.2.3,60.00022888270905,
2,13,experiment,12,sitting,noswitch,congruant,solid,square,yellow,stimuli/solid-rectangle.png,stimuli/yellow-square.png,1,,,,,,,,,,,,,,,,,,,,,,,,,0,0,0,0,1,0,1,0,0,12,12,12,,,,,,,,,,,,,,,,,,,,,,,,,,,,,,,,,,,,,,,,,,,,,,,,,,,,,,,,,,,,,,,1636136882.8240478,,,,,,,,,,344.05380296707153,None,,,,,,,,,,,,,,,,,,,,,,,,,,,,,,,,,,,,,,,,,,341.8593611717224,None,342.8491749763489,None,1,1,1.100341796875,342.8491749763489,None,8005,001,12,2021_Nov_05_1322,task-switching-replication,2021.2.3,60.00022888270905,
2,14,experiment,12,sitting,noswitch,congruant,solid,triangle,yellow,stimuli/solid-rectangle.png,stimuli/yellow-triangle.png,1,,,,,,,,,,,,,,,,,,,,,,,,,0,0,0,0,1,0,1,0,0,13,13,13,,,,,,,,,,,,,,,,,,,,,,,,,,,,,,,,,,,,,,,,,,,,,,,,,,,,,,,,,,,,,,,1636136884.7143497,,,,,,,,,,345.9438421726227,None,,,,,,,,,,,,,,,,,,,,,,,,,,,,,,,,,,,,,,,,,,344.28391098976135,None,345.2731521129608,None,1,1,0.5433449745178223,345.2731521129608,None,8005,001,12,2021_Nov_05_1322,task-switching-replication,2021.2.3,60.00022888270905,
2,15,experiment,12,sitting,noswitch,incongruant,solid,square,blue,stimuli/solid-rectangle.png,stimuli/blue-square.png,2,,,,,,,,,,,,,,,,,,,,,,,,,0,0,0,0,1,0,1,0,0,14,14,14,,,,,,,,,,,,,,,,,,,,,,,,,,,,,,,,,,,,,,,,,,,,,,,,,,,,,,,,,,,,,,,1636136886.4879656,,,,,,,,,,347.7168571949005,None,,,,,,,,,,,,,,,,,,,,,,,,,,,,,,,,,,,,,,,,,,346.17310404777527,None,347.16222405433655,None,2,1,0.4157431125640869,347.16222405433655,None,8005,001,12,2021_Nov_05_1322,task-switching-replication,2021.2.3,60.00022888270905,
2,16,experiment,12,sitting,switch,incongruant,dashed,square,blue,stimuli/dashed-rectangle.png,stimuli/blue-square.png,1,,,,,,,,,,,,,,,,,,,,,,,,,0,0,0,0,1,0,1,0,0,15,15,15,,,,,,,,,,,,,,,,,,,,,,,,,,,,,,,,,,,,,,,,,,,,,,,,,,,,,,,,,,,,,,,1636136888.4376402,,,,,,,,,,349.66649103164673,None,,,,,,,,,,,,,,,,,,,,,,,,,,,,,,,,,,,,,,,,,,347.94664001464844,None,348.9371681213379,None,1,1,0.6246340274810791,348.9371681213379,None,8005,001,12,2021_Nov_05_1322,task-switching-replication,2021.2.3,60.00022888270905,
2,17,experiment,12,sitting,noswitch,incongruant,dashed,triangle,yellow,stimuli/dashed-rectangle.png,stimuli/yellow-triangle.png,2,,,,,,,,,,,,,,,,,,,,,,,,,0,0,0,0,1,0,1,0,0,16,16,16,,,,,0,0,0,0,,,,,,,,,,,,,,,,,,,,,,,,,,,,,,,,,,,,,,,,,,,,,,,,,,,,,,,1636136890.3862405,,,,,,,,,,,,351.5875256061554,352.60582518577576,351.6207959651947,None,,,,,,,,,,,,,,,,,,,,,,,,,,,,,,,,,,,,,,349.8957591056824,None,350.8859829902649,None,1,0,0.5824167728424072,350.8859829902649,None,8005,001,12,2021_Nov_05_1322,task-switching-replication,2021.2.3,60.00022888270905,
2,17,experiment,12,sitting,noswitch,incongruant,dashed,triangle,yellow,stimuli/dashed-rectangle.png,stimuli/yellow-triangle.png,2,,,,,,,,,,,,,,,,,,,,,,,,,0,0,0,0,1,0,1,0,0,16,16,16,,,,,,,,,,,,,,,,,,,,,,,,,,,,,,,,,,,,,,,,,,,,,,,,,,,,,,,,,,,,,,,,,,,,,,,,,356.6486611366272,None,,,,,,,,,,,,,,,,,,,,,,,,,,,,,,,,,,,,,,,,,,,,,,,,,,,8005,001,12,2021_Nov_05_1322,task-switching-replication,2021.2.3,60.00022888270905,
2,18,experiment,12,sitting,switch,incongruant,solid,square,yellow,stimuli/solid-rectangle.png,stimuli/yellow-square.png,1,,,,,,,,,,,,,,,,,,,,,,,,,0,0,0,0,1,0,1,0,0,17,17,17,,,,,,,,,,,,,,,,,,,,,,,,,,,,,,,,,,,,,,,,,,,,,,,,,,,,,,,,,,,,,,,1636136897.6902344,,,,,,,,,,358.9197700023651,None,,,,,,,,,,,,,,,,,,,,,,,,,,,,,,,,,,,,,,,,,,356.845685005188,None,357.8345251083374,None,1,1,0.9478468894958496,357.8345251083374,None,8005,001,12,2021_Nov_05_1322,task-switching-replication,2021.2.3,60.00022888270905,
2,19,experiment,12,sitting,noswitch,congruant,solid,triangle,yellow,stimuli/solid-rectangle.png,stimuli/yellow-triangle.png,1,,,,,,,,,,,,,,,,,,,,,,,,,0,0,0,0,1,0,1,0,0,18,18,18,,,,,,,,,,,,,,,,,,,,,,,,,,,,,,,,,,,,,,,,,,,,,,,,,,,,,,,,,,,,,,,1636136899.6971526,,,,,,,,,,360.9266240596771,None,,,,,,,,,,,,,,,,,,,,,,,,,,,,,,,,,,,,,,,,,,359.14881205558777,None,360.13777017593384,None,1,1,0.6665189266204834,360.13777017593384,None,8005,001,12,2021_Nov_05_1322,task-switching-replication,2021.2.3,60.00022888270905,
2,20,experiment,12,sitting,switch,congruant,dashed,square,yellow,stimuli/dashed-rectangle.png,stimuli/yellow-square.png,1,,,,,,,,,,,,,,,,,,,,,,,,,0,0,0,0,1,0,1,0,0,19,19,19,,,,,,,,,,,,,,,,,,,,,,,,,,,,,,,,,,,,,,,,,,,,,,,,,,,,,,,,,,,,,,,1636136901.645349,,,,,,,,,,362.87482810020447,None,,,,,,,,,,,,,,,,,,,,,,,,,,,,,,,,,,,,,,,,,,361.15594696998596,None,362.1449420452118,None,1,1,0.5803890228271484,362.1449420452118,None,8005,001,12,2021_Nov_05_1322,task-switching-replication,2021.2.3,60.00022888270905,
2,21,experiment,12,sitting,switch,incongruant,solid,square,blue,stimuli/solid-rectangle.png,stimuli/blue-square.png,2,,,,,,,,,,,,,,,,,,,,,,,,,0,0,0,0,1,0,1,0,0,20,20,20,,,,,,,,,,,,,,,,,,,,,,,,,,,,,,,,,,,,,,,,,,,,,,,,,,,,,,,,,,,,,,,1636136903.7143266,,,,,,,,,,364.94307112693787,None,,,,,,,,,,,,,,,,,,,,,,,,,,,,,,,,,,,,,,,,,,363.103924036026,None,364.09354996681213,None,2,1,0.7212278842926025,364.09354996681213,None,8005,001,12,2021_Nov_05_1322,task-switching-replication,2021.2.3,60.00022888270905,
2,22,experiment,12,sitting,noswitch,incongruant,solid,square,yellow,stimuli/solid-rectangle.png,stimuli/yellow-square.png,1,,,,,,,,,,,,,,,,,,,,,,,,,0,0,0,0,1,0,1,0,0,21,21,21,,,,,,,,,,,,,,,,,,,,,,,,,,,,,,,,,,,,,,,,,,,,,,,,,,,,,,,,,,,,,,,1636136905.842089,,,,,,,,,,367.0711121559143,None,,,,,,,,,,,,,,,,,,,,,,,,,,,,,,,,,,,,,,,,,,365.17242312431335,None,366.1620771884918,None,1,1,0.7652378082275391,366.1620771884918,None,8005,001,12,2021_Nov_05_1322,task-switching-replication,2021.2.3,60.00022888270905,
2,23,experiment,12,sitting,noswitch,incongruant,solid,square,blue,stimuli/solid-rectangle.png,stimuli/blue-square.png,2,,,,,,,,,,,,,,,,,,,,,,,,,0,0,0,0,1,0,1,0,0,22,22,22,,,,,,,,,,,,,,,,,,,,,,,,,,,,,,,,,,,,,,,,,,,,,,,,,,,,,,,,,,,,,,,1636136907.7910573,,,,,,,,,,369.02005100250244,None,,,,,,,,,,,,,,,,,,,,,,,,,,,,,,,,,,,,,,,,,,367.3006360530853,None,368.29060411453247,None,2,1,0.6205999851226807,368.29060411453247,None,8005,001,12,2021_Nov_05_1322,task-switching-replication,2021.2.3,60.00022888270905,
2,24,experiment,12,sitting,switch,incongruant,dashed,square,blue,stimuli/dashed-rectangle.png,stimuli/blue-square.png,1,,,,,,,,,,,,,,,,,,,,,,,,,0,0,0,0,1,0,1,0,0,23,23,23,,,,,,,,,,,,,,,,,,,,,,,,,,,,,,,,,,,,,,,,,,,,,,,,,,,,,,,,,,,,,,,1636136909.6823015,,,,,,,,,,370.91117906570435,None,,,,,,,,,,,,,,,,,,,,,,,,,,,,,,,,,,,,,,,,,,369.2496130466461,None,370.23891496658325,None,1,1,0.5333578586578369,370.23891496658325,None,8005,001,12,2021_Nov_05_1322,task-switching-replication,2021.2.3,60.00022888270905,
2,25,experiment,12,sitting,noswitch,congruant,dashed,square,blue,stimuli/dashed-rectangle.png,stimuli/blue-square.png,1,,,,,,,,,,,,,,,,,,,,,,,,,0,0,0,0,1,0,1,0,0,24,24,24,,,,,,,,,,,,,,,,,,,,,,,,,,,,,,,,,,,,,,,,,,,,,,,,,,,,,,,,,,,,,,,1636136911.5139859,,,,,,,,,,372.7435190677643,None,,,,,,,,,,,,,,,,,,,,,,,,,,,,,,,,,,,,,,,,,,371.1414489746094,None,372.1316092014313,None,1,1,0.4656798839569092,372.1316092014313,None,8005,001,12,2021_Nov_05_1322,task-switching-replication,2021.2.3,60.00022888270905,
2,26,experiment,12,sitting,noswitch,incongruant,dashed,triangle,yellow,stimuli/dashed-rectangle.png,stimuli/yellow-triangle.png,2,,,,,,,,,,,,,,,,,,,,,,,,,0,0,0,0,1,0,1,0,0,25,25,25,,,,,,,,,,,,,,,,,,,,,,,,,,,,,,,,,,,,,,,,,,,,,,,,,,,,,,,,,,,,,,,1636136913.1694682,,,,,,,,,,374.3983941078186,None,,,,,,,,,,,,,,,,,,,,,,,,,,,,,,,,,,,,,,,,,,372.97255301475525,None,373.9621331691742,None,2,1,0.30663585662841797,373.9621331691742,None,8005,001,12,2021_Nov_05_1322,task-switching-replication,2021.2.3,60.00022888270905,
2,27,experiment,12,sitting,switch,congruant,solid,triangle,blue,stimuli/solid-rectangle.png,stimuli/blue-triangle.png,2,,,,,,,,,,,,,,,,,,,,,,,,,0,0,0,0,1,0,1,0,0,26,26,26,,,,,,,,,,,,,,,,,,,,,,,,,,,,,,,,,,,,,,,,,,,,,,,,,,,,,,,,,,,,,,,1636136915.1185706,,,,,,,,,,376.3480541706085,None,,,,,,,,,,,,,,,,,,,,,,,,,,,,,,,,,,,,,,,,,,374.62834906578064,None,375.61762619018555,None,2,1,0.5818808078765869,375.61762619018555,None,8005,001,12,2021_Nov_05_1322,task-switching-replication,2021.2.3,60.00022888270905,
2,28,experiment,12,sitting,switch,congruant,dashed,triangle,yellow,stimuli/dashed-rectangle.png,stimuli/yellow-triangle.png,2,,,,,,,,,,,,,,,,,,,,,,,,,0,0,0,0,1,0,1,0,0,27,27,27,,,,,0,0,0,0,,,,,,,,,,,,,,,,,,,,,,,,,,,,,,,,,,,,,,,,,,,,,,,,,,,,,,,1636136917.0115924,,,,,,,,,,,,378.2128894329071,379.2312431335449,378.2454330921173,None,,,,,,,,,,,,,,,,,,,,,,,,,,,,,,,,,,,,,,376.5773651599884,None,377.56708312034607,None,1,0,0.5099749565124512,377.56708312034607,None,8005,001,12,2021_Nov_05_1322,task-switching-replication,2021.2.3,60.00022888270905,
2,28,experiment,12,sitting,switch,congruant,dashed,triangle,yellow,stimuli/dashed-rectangle.png,stimuli/yellow-triangle.png,2,,,,,,,,,,,,,,,,,,,,,,,,,0,0,0,0,1,0,1,0,0,27,27,27,,,,,,,,,,,,,,,,,,,,,,,,,,,,,,,,,,,,,,,,,,,,,,,,,,,,,,,,,,,,,,,,,,,,,,,,,383.27556920051575,None,,,,,,,,,,,,,,,,,,,,,,,,,,,,,,,,,,,,,,,,,,,,,,,,,,,8005,001,12,2021_Nov_05_1322,task-switching-replication,2021.2.3,60.00022888270905,
2,29,experiment,12,sitting,switch,congruant,solid,triangle,blue,stimuli/solid-rectangle.png,stimuli/blue-triangle.png,2,,,,,,,,,,,,,,,,,,,,,,,,,0,0,0,0,1,0,1,0,0,28,28,28,,,,,,,,,,,,,,,,,,,,,,,,,,,,,,,,,,,,,,,,,,,,,,,,,,,,,,,,,,,,,,,1636136923.7886918,,,,,,,,,,385.017911195755,None,,,,,,,,,,,,,,,,,,,,,,,,,,,,,,,,,,,,,,,,,,383.4725031852722,None,384.46202301979065,None,2,1,0.43124914169311523,384.46202301979065,None,8005,001,12,2021_Nov_05_1322,task-switching-replication,2021.2.3,60.00022888270905,
2,30,experiment,12,sitting,switch,congruant,dashed,triangle,yellow,stimuli/dashed-rectangle.png,stimuli/yellow-triangle.png,2,,,,,,,,,,,,,,,,,,,,,,,,,0,0,0,0,1,0,1,0,0,29,29,29,,,,,,,,,,,,,,,,,,,,,,,,,,,,,,,,,,,,,,,,,,,,,,,,,,,,,,,,,,,,,,,1636136926.4488924,,,,,,,,,,387.6783239841461,None,,,,,,,,,,,,,,,,,,,,,,,,,,,,,,,,,,,,,,,,,,385.24759006500244,None,386.2373321056366,None,2,1,1.321993112564087,386.2373321056366,None,8005,001,12,2021_Nov_05_1322,task-switching-replication,2021.2.3,60.00022888270905,
2,31,experiment,12,sitting,switch,congruant,solid,triangle,blue,stimuli/solid-rectangle.png,stimuli/blue-triangle.png,2,,,,,,,,,,,,,,,,,,,,,,,,,0,0,0,0,1,0,1,0,0,30,30,30,,,,,,,,,,,,,,,,,,,,,,,,,,,,,,,,,,,,,,,,,,,,,,,,,,,,,,,,,,,,,,,1636136928.5161319,,,,,,,,,,389.74604296684265,None,,,,,,,,,,,,,,,,,,,,,,,,,,,,,,,,,,,,,,,,,,387.90784907341003,None,388.89681696891785,None,2,1,0.7244949340820312,388.89681696891785,None,8005,001,12,2021_Nov_05_1322,task-switching-replication,2021.2.3,60.00022888270905,
2,32,experiment,12,sitting,noswitch,congruant,solid,triangle,blue,stimuli/solid-rectangle.png,stimuli/blue-triangle.png,2,,,,,,,,,,,,,,,,,,,,,,,,,0,0,0,0,1,0,1,0,0,31,31,31,,,,,,,,,,,,,,,,,,,,,,,,,,,,,,,,,,,,,,,,,,,,,,,,,,,,,,,,,,,,,,,1636136930.1676013,,,,,,,,,,391.39709997177124,None,,,,,,,,,,,,,,,,,,,,,,,,,,,,,,,,,,,,,,,,,,389.9762341976166,None,390.9634301662445,None,2,1,0.3048708438873291,390.9634301662445,None,8005,001,12,2021_Nov_05_1322,task-switching-replication,2021.2.3,60.00022888270905,
2,33,experiment,12,sitting,switch,incongruant,dashed,square,blue,stimuli/dashed-rectangle.png,stimuli/blue-square.png,1,,,,,,,,,,,,,,,,,,,,,,,,,0,0,0,0,1,0,1,0,0,32,32,32,,,,,,,,,,,,,,,,,,,,,,,,,,,,,,,,,,,,,,,,,,,,,,,,,,,,,,,,,,,,,,,1636136932.3559616,,,,,,,,,,393.584450006485,None,,,,,,,,,,,,,,,,,,,,,,,,,,,,,,,,,,,,,,,,,,391.6264832019806,None,392.61556601524353,None,1,1,0.8447821140289307,392.61556601524353,None,8005,001,12,2021_Nov_05_1322,task-switching-replication,2021.2.3,60.00022888270905,
2,34,experiment,12,sitting,switch,incongruant,solid,square,blue,stimuli/solid-rectangle.png,stimuli/blue-square.png,2,,,,,,,,,,,,,,,,,,,,,,,,,0,0,0,0,1,0,1,0,0,33,33,33,,,,,,,,,,,,,,,,,,,,,,,,,,,,,,,,,,,,,,,,,,,,,,,,,,,,,,,,,,,,,,,1636136934.4262567,,,,,,,,,,395.6549301147461,None,,,,,,,,,,,,,,,,,,,,,,,,,,,,,,,,,,,,,,,,,,393.81403708457947,None,394.80379915237427,None,2,1,0.6877970695495605,394.80379915237427,None,8005,001,12,2021_Nov_05_1322,task-switching-replication,2021.2.3,60.00022888270905,
2,35,experiment,12,sitting,switch,congruant,dashed,triangle,blue,stimuli/dashed-rectangle.png,stimuli/blue-triangle.png,2,,,,,,,,,,,,,,,,,,,,,,,,,0,0,0,0,1,0,1,0,0,34,34,34,,,,,,,,,,,,,,,,,,,,,,,,,,,,,,,,,,,,,,,,,,,,,,,,,,,,,,,,,,,,,,,1636136936.5514684,,,,,,,,,,397.78093004226685,None,,,,,,,,,,,,,,,,,,,,,,,,,,,,,,,,,,,,,,,,,,395.8840641975403,None,396.8735520839691,None,2,1,0.777817964553833,396.8735520839691,None,8005,001,12,2021_Nov_05_1322,task-switching-replication,2021.2.3,60.00022888270905,
2,36,experiment,12,sitting,noswitch,congruant,dashed,triangle,blue,stimuli/dashed-rectangle.png,stimuli/blue-triangle.png,2,,,,,,,,,,,,,,,,,,,,,,,,,0,0,0,0,1,0,1,0,0,35,35,35,,,,,,,,,,,,,,,,,,,,,,,,,,,,,,,,,,,,,,,,,,,,,,,,,,,,,,,,,,,,,,,1636136938.3224351,,,,,,,,,,399.55324506759644,None,,,,,,,,,,,,,,,,,,,,,,,,,,,,,,,,,,,,,,,,,,398.01029801368713,None,398.9992940425873,None,2,1,0.3990650177001953,398.9992940425873,None,8005,001,12,2021_Nov_05_1322,task-switching-replication,2021.2.3,60.00022888270905,
2,37,experiment,12,sitting,switch,congruant,solid,triangle,blue,stimuli/solid-rectangle.png,stimuli/blue-triangle.png,2,,,,,,,,,,,,,,,,,,,,,,,,,0,0,0,0,1,0,1,0,0,36,36,36,,,,,,,,,,,,,,,,,,,,,,,,,,,,,,,,,,,,,,,,,,,,,,,,,,,,,,,,,,,,,,,1636136940.3917973,,,,,,,,,,401.62138319015503,None,,,,,,,,,,,,,,,,,,,,,,,,,,,,,,,,,,,,,,,,,,399.78275418281555,None,400.7729060649872,None,2,1,0.7343659400939941,400.7729060649872,None,8005,001,12,2021_Nov_05_1322,task-switching-replication,2021.2.3,60.00022888270905,
2,38,experiment,12,sitting,switch,incongruant,dashed,square,yellow,stimuli/dashed-rectangle.png,stimuli/yellow-square.png,1,,,,,,,,,,,,,,,,,,,,,,,,,0,0,0,0,1,0,1,0,0,37,37,37,,,,,,,,,,,,,,,,,,,,,,,,,,,,,,,,,,,,,,,,,,,,,,,,,,,,,,,,,,,,,,,1636136942.3415833,,,,,,,,,,403.5703761577606,None,,,,,,,,,,,,,,,,,,,,,,,,,,,,,,,,,,,,,,,,,,401.85091400146484,None,402.8399941921234,None,1,1,0.606208086013794,402.8399941921234,None,8005,001,12,2021_Nov_05_1322,task-switching-replication,2021.2.3,60.00022888270905,
2,39,experiment,12,sitting,noswitch,incongruant,dashed,triangle,blue,stimuli/dashed-rectangle.png,stimuli/blue-triangle.png,2,,,,,,,,,,,,,,,,,,,,,,,,,0,0,0,0,1,0,1,0,0,38,38,38,,,,,,,,,,,,,,,,,,,,,,,,,,,,,,,,,,,,,,,,,,,,,,,,,,,,,,,,,,,,,,,1636136944.4706762,,,,,,,,,,405.69989013671875,None,,,,,,,,,,,,,,,,,,,,,,,,,,,,,,,,,,,,,,,,,,403.8002390861511,None,404.79164600372314,None,2,1,0.7997951507568359,404.79164600372314,None,8005,001,12,2021_Nov_05_1322,task-switching-replication,2021.2.3,60.00022888270905,
2,40,experiment,12,sitting,switch,incongruant,solid,triangle,yellow,stimuli/solid-rectangle.png,stimuli/yellow-triangle.png,1,,,,,,,,,,,,,,,,,,,,,,,,,0,0,0,0,1,0,1,0,0,39,39,39,0,0,0,0,,,,,,,,,,,,,,,,,,,,,,,,,,,,,,,,,,,,,,,,,,,,,,,,,,,,,,,,,,,1636136946.4783454,,,,,,,,,,,,,,,,,,,,,,,,,,,,,,,,,,,,,407.67957949638367,408.69819808006287,407.71259117126465,None,,,,,,,,,,,,,405.9293351173401,None,406.9187881946564,None,2,0,0.6915078163146973,406.9187881946564,None,8005,001,12,2021_Nov_05_1322,task-switching-replication,2021.2.3,60.00022888270905,
2,40,experiment,12,sitting,switch,incongruant,solid,triangle,yellow,stimuli/solid-rectangle.png,stimuli/yellow-triangle.png,1,,,,,,,,,,,,,,,,,,,,,,,,,0,0,0,0,1,0,1,0,0,39,39,39,,,,,,,,,,,,,,,,,,,,,,,,,,,,,,,,,,,,,,,,,,,,,,,,,,,,,,,,,,,,,,,,,,,,,,,,,412.74072313308716,None,,,,,,,,,,,,,,,,,,,,,,,,,,,,,,,,,,,,,,,,,,,,,,,,,,,8005,001,12,2021_Nov_05_1322,task-switching-replication,2021.2.3,60.00022888270905,
2,41,experiment,12,sitting,switch,congruant,dashed,square,blue,stimuli/dashed-rectangle.png,stimuli/blue-square.png,1,,,,,,,,,,,,,,,,,,,,,,,,,0,0,0,0,1,0,1,0,0,40,40,40,,,,,,,,,,,,,,,,,,,,,,,,,,,,,,,,,,,,,,,,,,,,,,,,,,,,,,,,,,,,,,,1636136953.5473292,,,,,,,,,,414.77625918388367,None,,,,,,,,,,,,,,,,,,,,,,,,,,,,,,,,,,,,,,,,,,412.937607049942,None,413.9264290332794,None,1,1,0.6912081241607666,413.9264290332794,None,8005,001,12,2021_Nov_05_1322,task-switching-replication,2021.2.3,60.00022888270905,
2,42,experiment,12,sitting,noswitch,incongruant,dashed,triangle,blue,stimuli/dashed-rectangle.png,stimuli/blue-triangle.png,2,,,,,,,,,,,,,,,,,,,,,,,,,0,0,0,0,1,0,1,0,0,41,41,41,,,,,,,,,,,,,,,,,,,,,,,,,,,,,,,,,,,,,,,,,,,,,,,,,,,,,,,,,,,,,,,1636136955.7362864,,,,,,,,,,416.96505212783813,None,,,,,,,,,,,,,,,,,,,,,,,,,,,,,,,,,,,,,,,,,,415.005900144577,None,415.99661111831665,None,2,1,0.8197340965270996,415.99661111831665,None,8005,001,12,2021_Nov_05_1322,task-switching-replication,2021.2.3,60.00022888270905,
2,43,experiment,12,sitting,switch,incongruant,solid,square,yellow,stimuli/solid-rectangle.png,stimuli/yellow-square.png,1,,,,,,,,,,,,,,,,,,,,,,,,,0,0,0,0,1,0,1,0,0,42,42,42,,,,,,,,,,,,,,,,,,,,,,,,,,,,,,,,,,,,,,,,,,,,,,,,,,,,,,,,,,,,,,,1636136957.6877148,,,,,,,,,,418.9167890548706,None,,,,,,,,,,,,,,,,,,,,,,,,,,,,,,,,,,,,,,,,,,417.1946370601654,None,418.18404603004456,None,1,1,0.5838479995727539,418.18404603004456,None,8005,001,12,2021_Nov_05_1322,task-switching-replication,2021.2.3,60.00022888270905,
2,44,experiment,12,sitting,switch,incongruant,dashed,triangle,blue,stimuli/dashed-rectangle.png,stimuli/blue-triangle.png,2,,,,,,,,,,,,,,,,,,,,,,,,,0,0,0,0,1,0,1,0,0,43,43,43,,,,,,,,,,,,,,,,,,,,,,,,,,,,,,,,,,,,,,,,,,,,,,,,,,,,,,,,,,,,,,,1636136959.9941022,,,,,,,,,,421.22287797927856,None,,,,,,,,,,,,,,,,,,,,,,,,,,,,,,,,,,,,,,,,,,419.1465151309967,None,420.1359341144562,None,2,1,0.948483943939209,420.1359341144562,None,8005,001,12,2021_Nov_05_1322,task-switching-replication,2021.2.3,60.00022888270905,
2,45,experiment,12,sitting,noswitch,incongruant,dashed,square,blue,stimuli/dashed-rectangle.png,stimuli/blue-square.png,1,,,,,,,,,,,,,,,,,,,,,,,,,0,0,0,0,1,0,1,0,0,44,44,44,,,,,,,,,,,,,,,,,,,,,,,,,,,,,,,,,,,,,,,,,,,,,,,,,,,,,,,,,,,,,,,1636136962.1209004,,,,,,,,,,423.3498601913452,None,,,,,,,,,,,,,,,,,,,,,,,,,,,,,,,,,,,,,,,,,,421.4522399902344,None,422.4417669773102,None,1,1,0.7542028427124023,422.4417669773102,None,8005,001,12,2021_Nov_05_1322,task-switching-replication,2021.2.3,60.00022888270905,
2,46,experiment,12,sitting,switch,congruant,solid,square,yellow,stimuli/solid-rectangle.png,stimuli/yellow-square.png,1,,,,,,,,,,,,,,,,,,,,,,,,,0,0,0,0,1,0,1,0,0,45,45,45,,,,,,,,,,,,,,,,,,,,,,,,,,,,,,,,,,,,,,,,,,,,,,,,,,,,,,,,,,,,,,,1636136964.7218735,,,,,,,,,,425.9515190124512,None,,,,,,,,,,,,,,,,,,,,,,,,,,,,,,,,,,,,,,,,,,423.57934403419495,None,424.5694320201874,None,1,1,1.2295711040496826,424.5694320201874,None,8005,001,12,2021_Nov_05_1322,task-switching-replication,2021.2.3,60.00022888270905,
2,47,experiment,12,sitting,switch,congruant,dashed,square,yellow,stimuli/dashed-rectangle.png,stimuli/yellow-square.png,1,,,,,,,,,,,,,,,,,,,,,,,,,0,0,0,0,1,0,1,0,0,46,46,46,,,,,,,,,,,,,,,,,,,,,,,,,,,,,,,,,,,,,,,,,,,,,,,,,,,,,,,,,,,,,,,1636136966.7306895,,,,,,,,,,427.9604661464691,None,,,,,,,,,,,,,,,,,,,,,,,,,,,,,,,,,,,,,,,,,,426.180890083313,None,427.17103099823,None,1,1,0.6808950901031494,427.17103099823,None,8005,001,12,2021_Nov_05_1322,task-switching-replication,2021.2.3,60.00022888270905,
2,48,experiment,12,sitting,noswitch,congruant,dashed,square,yellow,stimuli/dashed-rectangle.png,stimuli/yellow-square.png,1,,,,,,,,,,,,,,,,,,,,,,,,,0,0,0,0,1,0,1,0,0,47,47,47,,,,,,,,,,,,,,,,,,,,,,,,,,,,,,,,,,,,,,,,,,,,,,,,,,,,,,,,,,,,,,,1636136968.5034492,,,,,,,,,,429.73305010795593,None,,,,,,,,,,,,,,,,,,,,,,,,,,,,,,,,,,,,,,,,,,428.18982315063477,None,429.1805830001831,None,1,1,0.4105079174041748,429.1805830001831,None,8005,001,12,2021_Nov_05_1322,task-switching-replication,2021.2.3,60.00022888270905,
2,49,experiment,12,sitting,noswitch,incongruant,dashed,triangle,yellow,stimuli/dashed-rectangle.png,stimuli/yellow-triangle.png,2,,,,,,,,,,,,,,,,,,,,,,,,,0,0,0,0,1,0,1,0,0,48,48,48,,,,,,,,,,,,,,,,,,,,,,,,,,,,,,,,,,,,,,,,,,,,,,,,,,,,,,,,,,,,,,,1636136970.4542496,,,,,,,,,,431.6830451488495,None,,,,,,,,,,,,,,,,,,,,,,,,,,,,,,,,,,,,,,,,,,429.96223998069763,None,430.95231318473816,None,2,1,0.6017680168151855,430.95231318473816,None,8005,001,12,2021_Nov_05_1322,task-switching-replication,2021.2.3,60.00022888270905,
,,,12,,,,,,,,,,,,,,,,,,,,,,,,,,,,,,,,,,0,0,0,0,1,0,1,0,,,,,,,,,,,,,,,,,,,,,,,,,,,,,,,,,,,,,,,,,,,,,,,,,,,,,,,,,,,,,,,,,,,,,,,,,,,,,,,,,,,,,,,,,,,,,,,,,,,,,,,,,,,,,,,,,,,,,,,,,,,,,,,,,8005,001,12,2021_Nov_05_1322,task-switching-replication,2021.2.3,60.00022888270905,
3,1,experiment,12,sitting,buffer,buffer,dashed,triangle,yellow,stimuli/dashed-rectangle.png,stimuli/yellow-triangle.png,2,,,,,,,,,,,,,,,,,,,,,,,,,0,0,0,0,2,0,2,0,0,0,0,0,,,,,,,,,,,,,,,,,,,,,,,,,,,,,,,,,,,,,,,,,,,,,,,,,,,,,,,,,,,,,,,1636136980.1184385,,,,,,,,,,441.348659992218,None,,,,,,,,,,,,,,,,,,,,,,,,,,,,,,431.91326117515564,None,2,6.024805068969727,431.91326117515564,None,438.06158804893494,None,2,1.209481954574585,438.06158804893494,None,439.451119184494,None,440.44071912765503,None,2,1,0.7962920665740967,440.44071912765503,None,8005,001,12,2021_Nov_05_1322,task-switching-replication,2021.2.3,60.00022888270905,
3,2,experiment,12,sitting,switch,congruant,solid,triangle,blue,stimuli/solid-rectangle.png,stimuli/blue-triangle.png,2,,,,,,,,,,,,,,,,,,,,,,,,,0,0,0,0,2,0,2,0,0,1,1,1,,,,,,,,,,,,,,,,,,,,,,,,,,,,,,,,,,,,,,,,,,,,,,,,,,,,,,,,,,,,,,,1636136981.831309,,,,,,,,,,443.06099700927734,None,,,,,,,,,,,,,,,,,,,,,,,,,,,,,,,,,,,,,,,,,,441.5783860683441,None,442.56799602508545,None,2,1,0.3771069049835205,442.56799602508545,None,8005,001,12,2021_Nov_05_1322,task-switching-replication,2021.2.3,60.00022888270905,
3,3,experiment,12,sitting,noswitch,incongruant,solid,square,yellow,stimuli/solid-rectangle.png,stimuli/yellow-square.png,1,,,,,,,,,,,,,,,,,,,,,,,,,0,0,0,0,2,0,2,0,0,2,2,2,,,,,,,,,,,,,,,,,,,,,,,,,,,,,,,,,,,,,,,,,,,,,,,,,,,,,,,,,,,,,,,1636136983.7206886,,,,,,,,,,444.9496932029724,None,,,,,,,,,,,,,,,,,,,,,,,,,,,,,,,,,,,,,,,,,,443.2903380393982,None,444.27957701683044,None,1,1,0.5600199699401855,444.27957701683044,None,8005,001,12,2021_Nov_05_1322,task-switching-replication,2021.2.3,60.00022888270905,
3,4,experiment,12,sitting,switch,congruant,dashed,square,yellow,stimuli/dashed-rectangle.png,stimuli/yellow-square.png,1,,,,,,,,,,,,,,,,,,,,,,,,,0,0,0,0,2,0,2,0,0,3,3,3,,,,,,,,,,,,,,,,,,,,,,,,,,,,,,,,,,,,,,,,,,,,,,,,,,,,,,,,,,,,,,,1636136985.4925942,,,,,,,,,,446.7221620082855,None,,,,,,,,,,,,,,,,,,,,,,,,,,,,,,,,,,,,,,,,,,445.1792051792145,None,446.1695041656494,None,1,1,0.4215250015258789,446.1695041656494,None,8005,001,12,2021_Nov_05_1322,task-switching-replication,2021.2.3,60.00022888270905,
3,5,experiment,12,sitting,switch,incongruant,solid,square,blue,stimuli/solid-rectangle.png,stimuli/blue-square.png,2,,,,,,,,,,,,,,,,,,,,,,,,,0,0,0,0,2,0,2,0,0,4,4,4,,,,,,,,,,,,,,,,,,,,,,,,,,,,,,,,,,,,,,,,,,,,,,,,,,,,,,,,,,,,,,,1636136987.6225145,,,,,,,,,,448.85149908065796,None,,,,,,,,,,,,,,,,,,,,,,,,,,,,,,,,,,,,,,,,,,446.9515001773834,None,447.9414451122284,None,2,1,0.7513649463653564,447.9414451122284,None,8005,001,12,2021_Nov_05_1322,task-switching-replication,2021.2.3,60.00022888270905,
3,6,experiment,12,sitting,switch,incongruant,dashed,square,blue,stimuli/dashed-rectangle.png,stimuli/blue-square.png,1,,,,,,,,,,,,,,,,,,,,,,,,,0,0,0,0,2,0,2,0,0,5,5,5,,,,,,,,,,,,,,,,,,,,,,,,,,,,,,,,,,,,,,,,,,,,,,,,,,,,,,,,,,,,,,,1636136989.807891,,,,,,,,,,451.037052154541,None,,,,,,,,,,,,,,,,,,,,,,,,,,,,,,,,,,,,,,,,,,449.0813310146332,None,450.0707440376282,None,1,1,0.8653078079223633,450.0707440376282,None,8005,001,12,2021_Nov_05_1322,task-switching-replication,2021.2.3,60.00022888270905,
3,7,experiment,12,sitting,noswitch,congruant,dashed,square,blue,stimuli/dashed-rectangle.png,stimuli/blue-square.png,1,,,,,,,,,,,,,,,,,,,,,,,,,0,0,0,0,2,0,2,0,0,6,6,6,,,,,0,0,0,0,,,,,,,,,,,,,,,,,,,,,,,,,,,,,,,,,,,,,,,,,,,,,,,,,,,,,,,1636136992.349085,,,,,,,,,,,,453.5503695011139,454.57029008865356,453.5830750465393,None,,,,,,,,,,,,,,,,,,,,,,,,,,,,,,,,,,,,,,451.2664279937744,None,452.25609612464905,None,2,0,1.2055909633636475,452.25609612464905,None,8005,001,12,2021_Nov_05_1322,task-switching-replication,2021.2.3,60.00022888270905,
3,7,experiment,12,sitting,noswitch,congruant,dashed,square,blue,stimuli/dashed-rectangle.png,stimuli/blue-square.png,1,,,,,,,,,,,,,,,,,,,,,,,,,0,0,0,0,2,0,2,0,0,6,6,6,,,,,,,,,,,,,,,,,,,,,,,,,,,,,,,,,,,,,,,,,,,,,,,,,,,,,,,,,,,,,,,,,,,,,,,,,458.5794529914856,None,,,,,,,,,,,,,,,,,,,,,,,,,,,,,,,,,,,,,,,,,,,,,,,,,,,8005,001,12,2021_Nov_05_1322,task-switching-replication,2021.2.3,60.00022888270905,
3,8,experiment,12,sitting,noswitch,incongruant,dashed,triangle,blue,stimuli/dashed-rectangle.png,stimuli/blue-triangle.png,2,,,,,,,,,,,,,,,,,,,,,,,,,0,0,0,0,2,0,2,0,0,7,7,7,,,,,,,,,,,,,,,,,,,,,,,,,,,,,,,,,,,,,,,,,,,,,,,,,,,,,,,,,,,,,,,1636136999.1220884,,,,,,,,,,460.35179710388184,None,,,,,,,,,,,,,,,,,,,,,,,,,,,,,,,,,,,,,,,,,,458.8090190887451,None,459.79932618141174,None,2,1,0.4167470932006836,459.79932618141174,None,8005,001,12,2021_Nov_05_1322,task-switching-replication,2021.2.3,60.00022888270905,
3,9,experiment,12,sitting,noswitch,congruant,dashed,triangle,blue,stimuli/dashed-rectangle.png,stimuli/blue-triangle.png,2,,,,,,,,,,,,,,,,,,,,,,,,,0,0,0,0,2,0,2,0,0,8,8,8,,,,,,,,,,,,,,,,,,,,,,,,,,,,,,,,,,,,,,,,,,,,,,,,,,,,,,,,,,,,,,,1636137000.9532983,,,,,,,,,,462.18287897109985,None,,,,,,,,,,,,,,,,,,,,,,,,,,,,,,,,,,,,,,,,,,460.5818841457367,None,461.5713641643524,None,2,1,0.4976229667663574,461.5713641643524,None,8005,001,12,2021_Nov_05_1322,task-switching-replication,2021.2.3,60.00022888270905,
3,10,experiment,12,sitting,noswitch,congruant,dashed,triangle,blue,stimuli/dashed-rectangle.png,stimuli/blue-triangle.png,2,,,,,,,,,,,,,,,,,,,,,,,,,0,0,0,0,2,0,2,0,0,9,9,9,,,,,,,,,,,,,,,,,,,,,,,,,,,,,,,,,,,,,,,,,,,,,,,,,,,,,,,,,,,,,,,1636137002.8446023,,,,,,,,,,464.07417607307434,None,,,,,,,,,,,,,,,,,,,,,,,,,,,,,,,,,,,,,,,,,,462.41295099258423,None,463.4029769897461,None,2,1,0.5169239044189453,463.4029769897461,None,8005,001,12,2021_Nov_05_1322,task-switching-replication,2021.2.3,60.00022888270905,
3,11,experiment,12,sitting,noswitch,incongruant,dashed,square,blue,stimuli/dashed-rectangle.png,stimuli/blue-square.png,1,,,,,,,,,,,,,,,,,,,,,,,,,0,0,0,0,2,0,2,0,0,10,10,10,,,,,,,,,,,,,,,,,,,,,,,,,,,,,,,,,,,,,,,,,,,,,,,,,,,,,,,,,,,,,,,1636137004.9132066,,,,,,,,,,466.1419680118561,None,,,,,,,,,,,,,,,,,,,,,,,,,,,,,,,,,,,,,,,,,,464.30424404144287,None,465.2941541671753,None,1,1,0.7041318416595459,465.2941541671753,None,8005,001,12,2021_Nov_05_1322,task-switching-replication,2021.2.3,60.00022888270905,
3,12,experiment,12,sitting,switch,congruant,solid,square,yellow,stimuli/solid-rectangle.png,stimuli/yellow-square.png,1,,,,,,,,,,,,,,,,,,,,,,,,,0,0,0,0,2,0,2,0,0,11,11,11,,,,,,,,,,,,,,,,,,,,,,,,,,,,,,,,,,,,,,,,,,,,,,,,,,,,,,,,,,,,,,,1636137007.3955374,,,,,,,,,,468.62510418891907,None,,,,,,,,,,,,,,,,,,,,,,,,,,,,,,,,,,,,,,,,,,466.3714351654053,None,467.3614501953125,None,1,1,1.1083579063415527,467.3614501953125,None,8005,001,12,2021_Nov_05_1322,task-switching-replication,2021.2.3,60.00022888270905,
3,13,experiment,12,sitting,noswitch,incongruant,solid,square,blue,stimuli/solid-rectangle.png,stimuli/blue-square.png,2,,,,,,,,,,,,,,,,,,,,,,,,,0,0,0,0,2,0,2,0,0,12,12,12,,,,,,,,,,,,,,,,,,,,,,,,,,,,,,,,,,,,,,,,,,,,,,,,,,,,,,,,,,,,,,,1636137009.5223856,,,,,,,,,,470.7517750263214,None,,,,,,,,,,,,,,,,,,,,,,,,,,,,,,,,,,,,,,,,,,468.85440611839294,None,469.84434509277344,None,2,1,0.7963061332702637,469.84434509277344,None,8005,001,12,2021_Nov_05_1322,task-switching-replication,2021.2.3,60.00022888270905,
3,14,experiment,12,sitting,switch,incongruant,dashed,square,yellow,stimuli/dashed-rectangle.png,stimuli/yellow-square.png,1,,,,,,,,,,,,,,,,,,,,,,,,,0,0,0,0,2,0,2,0,0,13,13,13,,,,,,,,,,,,,,,,,,,,,,,,,,,,,,,,,,,,,,,,,,,,,,,,,,,,,,,,,,,,,,,1636137011.5345573,,,,,,,,,,472.76330399513245,None,,,,,,,,,,,,,,,,,,,,,,,,,,,,,,,,,,,,,,,,,,470.9813721179962,None,471.97201800346375,None,1,1,0.6430490016937256,471.97201800346375,None,8005,001,12,2021_Nov_05_1322,task-switching-replication,2021.2.3,60.00022888270905,
3,15,experiment,12,sitting,switch,incongruant,solid,triangle,blue,stimuli/solid-rectangle.png,stimuli/blue-triangle.png,2,,,,,,,,,,,,,,,,,,,,,,,,,0,0,0,0,2,0,2,0,0,14,14,14,,,,,,,,,,,,,,,,,,,,,,,,,,,,,,,,,,,,,,,,,,,,,,,,,,,,,,,,,,,,,,,1636137013.543637,,,,,,,,,,474.7724380493164,None,,,,,,,,,,,,,,,,,,,,,,,,,,,,,,,,,,,,,,,,,,472.9931139945984,None,473.98323607444763,None,2,1,0.6359379291534424,473.98323607444763,None,8005,001,12,2021_Nov_05_1322,task-switching-replication,2021.2.3,60.00022888270905,
3,16,experiment,12,sitting,noswitch,incongruant,solid,triangle,yellow,stimuli/solid-rectangle.png,stimuli/yellow-triangle.png,1,,,,,,,,,,,,,,,,,,,,,,,,,0,0,0,0,2,0,2,0,0,15,15,15,,,,,,,,,,,,,,,,,,,,,,,,,,,,,,,,,,,,,,,,,,,,,,,,,,,,,,,,,,,,,,,1636137015.6102319,,,,,,,,,,476.8395450115204,None,,,,,,,,,,,,,,,,,,,,,,,,,,,,,,,,,,,,,,,,,,475.00194907188416,None,475.9913799762726,None,1,1,0.7314298152923584,475.9913799762726,None,8005,001,12,2021_Nov_05_1322,task-switching-replication,2021.2.3,60.00022888270905,
3,17,experiment,12,sitting,noswitch,congruant,solid,triangle,yellow,stimuli/solid-rectangle.png,stimuli/yellow-triangle.png,1,,,,,,,,,,,,,,,,,,,,,,,,,0,0,0,0,2,0,2,0,0,16,16,16,,,,,,,,,,,,,,,,,,,,,,,,,,,,,,,,,,,,,,,,,,,,,,,,,,,,,,,,,,,,,,,1636137017.50075,,,,,,,,,,478.7301540374756,None,,,,,,,,,,,,,,,,,,,,,,,,,,,,,,,,,,,,,,,,,,477.06911611557007,None,478.0594310760498,None,1,1,0.5442380905151367,478.0594310760498,None,8005,001,12,2021_Nov_05_1322,task-switching-replication,2021.2.3,60.00022888270905,
3,18,experiment,12,sitting,noswitch,congruant,solid,triangle,yellow,stimuli/solid-rectangle.png,stimuli/yellow-triangle.png,1,,,,,,,,,,,,,,,,,,,,,,,,,0,0,0,0,2,0,2,0,0,17,17,17,,,,,,,,,,,,,,,,,,,,,,,,,,,,,,,,,,,,,,,,,,,,,,,,,,,,,,,,,,,,,,,1636137019.2126627,,,,,,,,,,480.44209003448486,None,,,,,,,,,,,,,,,,,,,,,,,,,,,,,,,,,,,,,,,,,,478.95933198928833,None,479.94895005226135,None,1,1,0.3679039478302002,479.94895005226135,None,8005,001,12,2021_Nov_05_1322,task-switching-replication,2021.2.3,60.00022888270905,
3,19,experiment,12,sitting,switch,congruant,dashed,square,blue,stimuli/dashed-rectangle.png,stimuli/blue-square.png,1,,,,,,,,,,,,,,,,,,,,,,,,,0,0,0,0,2,0,2,0,0,18,18,18,,,,,0,0,0,0,,,,,,,,,,,,,,,,,,,,,,,,,,,,,,,,,,,,,,,,,,,,,,,,,,,,,,,1636137021.0444264,,,,,,,,,,,,482.24576354026794,483.2638671398163,482.27801513671875,None,,,,,,,,,,,,,,,,,,,,,,,,,,,,,,,,,,,,,,480.67142605781555,None,481.66131114959717,None,2,0,0.4579489231109619,481.66131114959717,None,8005,001,12,2021_Nov_05_1322,task-switching-replication,2021.2.3,60.00022888270905,
3,19,experiment,12,sitting,switch,congruant,dashed,square,blue,stimuli/dashed-rectangle.png,stimuli/blue-square.png,1,,,,,,,,,,,,,,,,,,,,,,,,,0,0,0,0,2,0,2,0,0,18,18,18,,,,,,,,,,,,,,,,,,,,,,,,,,,,,,,,,,,,,,,,,,,,,,,,,,,,,,,,,,,,,,,,,,,,,,,,,487.27521300315857,None,,,,,,,,,,,,,,,,,,,,,,,,,,,,,,,,,,,,,,,,,,,,,,,,,,,8005,001,12,2021_Nov_05_1322,task-switching-replication,2021.2.3,60.00022888270905,
3,20,experiment,12,sitting,noswitch,incongruant,dashed,triangle,blue,stimuli/dashed-rectangle.png,stimuli/blue-triangle.png,2,,,,,,,,,,,,,,,,,,,,,,,,,0,0,0,0,2,0,2,0,0,19,19,19,,,,,,,,,,,,,,,,,,,,,,,,,,,,,,,,,,,,,,,,,,,,,,,,,,,,,,,,,,,,,,,1636137028.1710074,,,,,,,,,,489.4005961418152,None,,,,,,,,,,,,,,,,,,,,,,,,,,,,,,,,,,,,,,,,,,487.5036051273346,None,488.4925961494446,None,2,1,0.802177906036377,488.4925961494446,None,8005,001,12,2021_Nov_05_1322,task-switching-replication,2021.2.3,60.00022888270905,
3,21,experiment,12,sitting,switch,incongruant,solid,triangle,yellow,stimuli/solid-rectangle.png,stimuli/yellow-triangle.png,1,,,,,,,,,,,,,,,,,,,,,,,,,0,0,0,0,2,0,2,0,0,20,20,20,,,,,,,,,,,,,,,,,,,,,,,,,,,,,,,,,,,,,,,,,,,,,,,,,,,,,,,,,,,,,,,1636137030.2978964,,,,,,,,,,491.5269889831543,None,,,,,,,,,,,,,,,,,,,,,,,,,,,,,,,,,,,,,,,,,,489.6300539970398,None,490.6192491054535,None,1,1,0.794813871383667,490.6192491054535,None,8005,001,12,2021_Nov_05_1322,task-switching-replication,2021.2.3,60.00022888270905,
3,22,experiment,12,sitting,noswitch,incongruant,solid,square,blue,stimuli/solid-rectangle.png,stimuli/blue-square.png,2,,,,,,,,,,,,,,,,,,,,,,,,,0,0,0,0,2,0,2,0,0,21,21,21,,,,,,,,,,,,,,,,,,,,,,,,,,,,,,,,,,,,,,,,,,,,,,,,,,,,,,,,,,,,,,,1636137032.4285161,,,,,,,,,,493.65732407569885,None,,,,,,,,,,,,,,,,,,,,,,,,,,,,,,,,,,,,,,,,,,491.75640511512756,None,492.7465720176697,None,2,1,0.7674770355224609,492.7465720176697,None,8005,001,12,2021_Nov_05_1322,task-switching-replication,2021.2.3,60.00022888270905,
3,23,experiment,12,sitting,noswitch,incongruant,solid,square,yellow,stimuli/solid-rectangle.png,stimuli/yellow-square.png,1,,,,,,,,,,,,,,,,,,,,,,,,,0,0,0,0,2,0,2,0,0,22,22,22,,,,,,,,,,,,,,,,,,,,,,,,,,,,,,,,,,,,,,,,,,,,,,,,,,,,,,,,,,,,,,,1636137034.67471,,,,,,,,,,495.90357518196106,None,,,,,,,,,,,,,,,,,,,,,,,,,,,,,,,,,,,,,,,,,,493.8868041038513,None,494.87630701065063,None,1,1,0.9032270908355713,494.87630701065063,None,8005,001,12,2021_Nov_05_1322,task-switching-replication,2021.2.3,60.00022888270905,
3,24,experiment,12,sitting,switch,congruant,dashed,square,yellow,stimuli/dashed-rectangle.png,stimuli/yellow-square.png,1,,,,,,,,,,,,,,,,,,,,,,,,,0,0,0,0,2,0,2,0,0,23,23,23,,,,,,,,,,,,,,,,,,,,,,,,,,,,,,,,,,,,,,,,,,,,,,,,,,,,,,,,,,,,,,,1636137036.5047967,,,,,,,,,,497.73438119888306,None,,,,,,,,,,,,,,,,,,,,,,,,,,,,,,,,,,,,,,,,,,496.1330101490021,None,497.1226680278778,None,1,1,0.46710991859436035,497.1226680278778,None,8005,001,12,2021_Nov_05_1322,task-switching-replication,2021.2.3,60.00022888270905,
3,25,experiment,12,sitting,noswitch,congruant,dashed,square,blue,stimuli/dashed-rectangle.png,stimuli/blue-square.png,1,,,,,,,,,,,,,,,,,,,,,,,,,0,0,0,0,2,0,2,0,0,24,24,24,,,,,,,,,,,,,,,,,,,,,,,,,,,,,,,,,,,,,,,,,,,,,,,,,,,,,,,,,,,,,,,1636137038.5125935,,,,,,,,,,499.74200105667114,None,,,,,,,,,,,,,,,,,,,,,,,,,,,,,,,,,,,,,,,,,,497.96377301216125,None,498.95316314697266,None,1,1,0.6324319839477539,498.95316314697266,None,8005,001,12,2021_Nov_05_1322,task-switching-replication,2021.2.3,60.00022888270905,
3,26,experiment,12,sitting,switch,congruant,solid,square,yellow,stimuli/solid-rectangle.png,stimuli/yellow-square.png,1,,,,,,,,,,,,,,,,,,,,,,,,,0,0,0,0,2,0,2,0,0,25,25,25,,,,,,,,,,,,,,,,,,,,,,,,,,,,,,,,,,,,,,,,,,,,,,,,,,,,,,,,,,,,,,,1636137040.6999595,,,,,,,,,,501.92844104766846,None,,,,,,,,,,,,,,,,,,,,,,,,,,,,,,,,,,,,,,,,,,499.9712691307068,None,500.9614989757538,None,1,1,0.8440158367156982,500.9614989757538,None,8005,001,12,2021_Nov_05_1322,task-switching-replication,2021.2.3,60.00022888270905,
3,27,experiment,12,sitting,noswitch,congruant,solid,square,yellow,stimuli/solid-rectangle.png,stimuli/yellow-square.png,1,,,,,,,,,,,,,,,,,,,,,,,,,0,0,0,0,2,0,2,0,0,26,26,26,,,,,,,,,,,,,,,,,,,,,,,,,,,,,,,,,,,,,,,,,,,,,,,,,,,,,,,,,,,,,,,1636137042.4129553,,,,,,,,,,503.64259600639343,None,,,,,,,,,,,,,,,,,,,,,,,,,,,,,,,,,,,,,,,,,,502.15599298477173,None,503.1492340564728,None,1,1,0.39348816871643066,503.1492340564728,None,8005,001,12,2021_Nov_05_1322,task-switching-replication,2021.2.3,60.00022888270905,
3,28,experiment,12,sitting,noswitch,incongruant,solid,triangle,blue,stimuli/solid-rectangle.png,stimuli/blue-triangle.png,2,,,,,,,,,,,,,,,,,,,,,,,,,0,0,0,0,2,0,2,0,0,27,27,27,,,,,,,,,,,,,,,,,,,,,,,,,,,,,,,,,,,,,,,,,,,,,,,,,,,,,,,,,,,,,,,1636137044.2444599,,,,,,,,,,505.47416520118713,None,,,,,,,,,,,,,,,,,,,,,,,,,,,,,,,,,,,,,,,,,,503.8720681667328,None,504.8624801635742,None,2,1,0.5040888786315918,504.8624801635742,None,8005,001,12,2021_Nov_05_1322,task-switching-replication,2021.2.3,60.00022888270905,
3,29,experiment,12,sitting,switch,incongruant,dashed,square,yellow,stimuli/dashed-rectangle.png,stimuli/yellow-square.png,1,,,,,,,,,,,,,,,,,,,,,,,,,0,0,0,0,2,0,2,0,0,28,28,28,,,,,,,,,,,,,,,,,,,,,,,,,,,,,,,,,,,,,,,,,,,,,,,,,,,,,,,,,,,,,,,1636137046.3123221,,,,,,,,,,507.54164600372314,None,,,,,,,,,,,,,,,,,,,,,,,,,,,,,,,,,,,,,,,,,,505.7034361362457,None,506.6933870315552,None,1,1,0.7399129867553711,506.6933870315552,None,8005,001,12,2021_Nov_05_1322,task-switching-replication,2021.2.3,60.00022888270905,
3,30,experiment,12,sitting,switch,incongruant,solid,square,blue,stimuli/solid-rectangle.png,stimuli/blue-square.png,2,,,,,,,,,,,,,,,,,,,,,,,,,0,0,0,0,2,0,2,0,0,29,29,29,,,,,,,,,,,,,,,,,,,,,,,,,,,,,,,,,,,,,,,,,,,,,,,,,,,,,,,,,,,,,,,1636137048.5031092,,,,,,,,,,509.73214316368103,None,,,,,,,,,,,,,,,,,,,,,,,,,,,,,,,,,,,,,,,,,,507.77117800712585,None,508.76141715049744,None,2,1,0.8413181304931641,508.76141715049744,None,8005,001,12,2021_Nov_05_1322,task-switching-replication,2021.2.3,60.00022888270905,
3,31,experiment,12,sitting,switch,congruant,dashed,triangle,blue,stimuli/dashed-rectangle.png,stimuli/blue-triangle.png,2,,,,,,,,,,,,,,,,,,,,,,,,,0,0,0,0,2,0,2,0,0,30,30,30,,,,,,,,,,,,,,,,,,,,,,,,,,,,,,,,,,,,,,,,,,,,,,,,,,,,,,,,,,,,,,,1636137050.6881187,,,,,,,,,,511.9175751209259,None,,,,,,,,,,,,,,,,,,,,,,,,,,,,,,,,,,,,,,,,,,509.9612259864807,None,510.9504451751709,None,2,1,0.8432738780975342,510.9504451751709,None,8005,001,12,2021_Nov_05_1322,task-switching-replication,2021.2.3,60.00022888270905,
3,32,experiment,12,sitting,switch,incongruant,solid,triangle,yellow,stimuli/solid-rectangle.png,stimuli/yellow-triangle.png,1,,,,,,,,,,,,,,,,,,,,,,,,,0,0,0,0,2,0,2,0,0,31,31,31,,,,,,,,,,,,,,,,,,,,,,,,,,,,,,,,,,,,,,,,,,,,,,,,,,,,,,,,,,,,,,,1636137052.6383276,,,,,,,,,,513.8672411441803,None,,,,,,,,,,,,,,,,,,,,,,,,,,,,,,,,,,,,,,,,,,512.1469671726227,None,513.1363341808319,None,1,1,0.5770878791809082,513.1363341808319,None,8005,001,12,2021_Nov_05_1322,task-switching-replication,2021.2.3,60.00022888270905,
3,33,experiment,12,sitting,switch,incongruant,dashed,triangle,yellow,stimuli/dashed-rectangle.png,stimuli/yellow-triangle.png,2,,,,,,,,,,,,,,,,,,,,,,,,,0,0,0,0,2,0,2,0,0,32,32,32,,,,,,,,,,,,,,,,,,,,,,,,,,,,,,,,,,,,,,,,,,,,,,,,,,,,,,,,,,,,,,,1636137054.824443,,,,,,,,,,516.0535941123962,None,,,,,,,,,,,,,,,,,,,,,,,,,,,,,,,,,,,,,,,,,,514.097323179245,None,515.0871269702911,None,2,1,0.8562479019165039,515.0871269702911,None,8005,001,12,2021_Nov_05_1322,task-switching-replication,2021.2.3,60.00022888270905,
3,34,experiment,12,sitting,switch,congruant,solid,square,blue,stimuli/solid-rectangle.png,stimuli/blue-square.png,2,,,,,,,,,,,,,,,,,,,,,,,,,0,0,0,0,2,0,2,0,0,33,33,33,,,,,,,,,,,,,,,,,,,,,,,,,,,,,,,,,,,,,,,,,,,,,,,,,,,,,,,,,,,,,,,1636137056.714123,,,,,,,,,,517.9435820579529,None,,,,,,,,,,,,,,,,,,,,,,,,,,,,,,,,,,,,,,,,,,516.2829811573029,None,517.2727091312408,None,2,1,0.5149931907653809,517.2727091312408,None,8005,001,12,2021_Nov_05_1322,task-switching-replication,2021.2.3,60.00022888270905,
3,35,experiment,12,sitting,noswitch,incongruant,solid,triangle,yellow,stimuli/solid-rectangle.png,stimuli/yellow-triangle.png,1,,,,,,,,,,,,,,,,,,,,,,,,,0,0,0,0,2,0,2,0,0,34,34,34,,,,,,,,,,,,,,,,,,,,,,,,,,,,,,,,,,,,,,,,,,,,,,,,,,,,,,,,,,,,,,,1636137058.9030516,,,,,,,,,,520.1317579746246,None,,,,,,,,,,,,,,,,,,,,,,,,,,,,,,,,,,,,,,,,,,518.1727910041809,None,519.1637620925903,None,1,1,0.834136962890625,519.1637620925903,None,8005,001,12,2021_Nov_05_1322,task-switching-replication,2021.2.3,60.00022888270905,
3,36,experiment,12,sitting,switch,congruant,dashed,square,yellow,stimuli/dashed-rectangle.png,stimuli/yellow-square.png,1,,,,,,,,,,,,,,,,,,,,,,,,,0,0,0,0,2,0,2,0,0,35,35,35,,,,,,,,,,,,,,,,,,,,,,,,,,,,,,,,,,,,,,,,,,,,,,,,,,,,,,,,,,,,,,,1636137060.7936301,,,,,,,,,,522.0232000350952,None,,,,,,,,,,,,,,,,,,,,,,,,,,,,,,,,,,,,,,,,,,520.3610680103302,None,521.3519330024719,None,1,1,0.5246481895446777,521.3519330024719,None,8005,001,12,2021_Nov_05_1322,task-switching-replication,2021.2.3,60.00022888270905,
3,37,experiment,12,sitting,noswitch,incongruant,dashed,triangle,blue,stimuli/dashed-rectangle.png,stimuli/blue-triangle.png,2,,,,,,,,,,,,,,,,,,,,,,,,,0,0,0,0,2,0,2,0,0,36,36,36,,,,,,,,,,,,,,,,,,,,,,,,,,,,,,,,,,,,,,,,,,,,,,,,,,,,,,,,,,,,,,,1636137062.922112,,,,,,,,,,524.150820016861,None,,,,,,,,,,,,,,,,,,,,,,,,,,,,,,,,,,,,,,,,,,522.2525281906128,None,523.2414541244507,None,2,1,0.7554049491882324,523.2414541244507,None,8005,001,12,2021_Nov_05_1322,task-switching-replication,2021.2.3,60.00022888270905,
3,38,experiment,12,sitting,noswitch,congruant,dashed,triangle,yellow,stimuli/dashed-rectangle.png,stimuli/yellow-triangle.png,2,,,,,,,,,,,,,,,,,,,,,,,,,0,0,0,0,2,0,2,0,0,37,37,37,,,,,,,,,,,,,,,,,,,,,,,,,,,,,,,,,,,,,,,,,,,,,,,,,,,,,,,,,,,,,,,1636137065.1087754,,,,,,,,,,526.338296175003,None,,,,,,,,,,,,,,,,,,,,,,,,,,,,,,,,,,,,,,,,,,524.3806290626526,None,525.3707070350647,None,2,1,0.817957878112793,525.3707070350647,None,8005,001,12,2021_Nov_05_1322,task-switching-replication,2021.2.3,60.00022888270905,
3,39,experiment,12,sitting,switch,congruant,solid,square,blue,stimuli/solid-rectangle.png,stimuli/blue-square.png,2,,,,,,,,,,,,,,,,,,,,,,,,,0,0,0,0,2,0,2,0,0,38,38,38,,,,,,,,,,,,,,,,,,,,,,,,,,,,,,,,,,,,,,,,,,,,,,,,,,,,,,,,,,,,,,,1636137066.9989598,,,,,,,,,,528.2293751239777,None,,,,,,,,,,,,,,,,,,,,,,,,,,,,,,,,,,,,,,,,,,526.5676031112671,None,527.5576272010803,None,2,1,0.522101879119873,527.5576272010803,None,8005,001,12,2021_Nov_05_1322,task-switching-replication,2021.2.3,60.00022888270905,
