blockNum,trialNum,trialType,condition,posture,switchTrialType,congruantTrialType,cueType,shapeType,shapeColor,cueFileName,stimuliFileName,correctAnswer,untimedTrials.thisRepN,untimedTrials.thisTrialN,untimedTrials.thisN,untimedTrials.thisIndex,selectSolid1.thisRepN,selectSolid1.thisTrialN,selectSolid1.thisN,selectSolid1.thisIndex,selectDashed1.thisRepN,selectDashed1.thisTrialN,selectDashed1.thisN,selectDashed1.thisIndex,timedTrials.thisRepN,timedTrials.thisTrialN,timedTrials.thisN,timedTrials.thisIndex,selectSolid2.thisRepN,selectSolid2.thisTrialN,selectSolid2.thisN,selectSolid2.thisIndex,selectDashed2.thisRepN,selectDashed2.thisTrialN,selectDashed2.thisN,selectDashed2.thisIndex,postures.thisRepN,postures.thisTrialN,postures.thisN,postures.thisIndex,blocks.thisRepN,blocks.thisTrialN,blocks.thisN,blocks.thisIndex,trials.thisRepN,trials.thisTrialN,trials.thisN,trials.thisIndex,selectSolid.thisRepN,selectSolid.thisTrialN,selectSolid.thisN,selectSolid.thisIndex,selectDashed.thisRepN,selectDashed.thisTrialN,selectDashed.thisN,selectDashed.thisIndex,text_3.started,text_3.stopped,key_resp_2.keys,key_resp_2.rt,key_resp_2.started,key_resp_2.stopped,image_4.started,image_4.stopped,key_resp_4.keys,key_resp_4.rt,key_resp_4.started,key_resp_4.stopped,image_5.started,image_5.stopped,key_resp_5.keys,key_resp_5.rt,key_resp_5.started,key_resp_5.stopped,image_6.started,image_6.stopped,key_resp_6.keys,key_resp_6.rt,key_resp_6.started,key_resp_6.stopped,image_7.started,image_7.stopped,key_resp_7.keys,key_resp_7.rt,key_resp_7.started,key_resp_7.stopped,image_8.started,image_8.stopped,key_resp_8.keys,key_resp_8.rt,key_resp_8.started,key_resp_8.stopped,image_9.started,image_9.stopped,key_resp_9.keys,key_resp_9.rt,key_resp_9.started,key_resp_9.stopped,image_10.started,image_10.stopped,key_resp_10.keys,key_resp_10.rt,key_resp_10.started,key_resp_10.stopped,image_11.started,image_11.stopped,key_resp_11.keys,key_resp_11.rt,key_resp_11.started,key_resp_11.stopped,utcTime,cue_untimed_image.started,cue_untimed_image.stopped,stimuli_untimed_image.started,stimuli_untimed_image.stopped,untimed_resp.keys,untimed_resp.corr,untimed_resp.rt,untimed_resp.started,untimed_resp.stopped,text_2.started,text_2.stopped,sound_1.started,sound_1.stopped,image_2.started,image_2.stopped,image_12.started,image_12.stopped,key_resp_12.keys,key_resp_12.rt,key_resp_12.started,key_resp_12.stopped,image_13.started,image_13.stopped,key_resp_13.keys,key_resp_13.rt,key_resp_13.started,key_resp_13.stopped,cue_timed_image.started,cue_timed_image.stopped,stimuli_timed_image.started,stimuli_timed_image.stopped,timed_resp.keys,timed_resp.corr,timed_resp.rt,timed_resp.started,timed_resp.stopped,sound_2.started,sound_2.stopped,image_3.started,image_3.stopped,image.started,image.stopped,key_response.keys,key_response.rt,key_response.started,key_response.stopped,text.started,text.stopped,key_resp.keys,key_resp.rt,key_resp.started,key_resp.stopped,cue_image.started,cue_image.stopped,stimuli_image.started,stimuli_image.stopped,exp_resp.keys,exp_resp.corr,exp_resp.rt,exp_resp.started,exp_resp.stopped,participant,session,condition,date,expName,psychopyVersion,frameRate,
,,,05,,,,,,,,,,,,,,,,,,,,,,,,,,,,,,,,,,,,,,,,,,,,,,,,,,,,,,21.96506690979004,None,2,63.14434504508972,21.96506690979004,None,,,,,,,,,,,,,,,,,,,,,,,,,,,,,,,,,,,,,,,,,,,,,,,,,,,,,,,,,,,,,,,,,,,,,,,,,,,,,,,,,,,,,,,,,,,,,,,,,,,,,,,,,,,,,,,8006,001,05,2021_Nov_05_1419,task-switching-replication,2021.2.3,59.999542239820556,
,,,05,,,,,,,,,,,,,,,,,,,,,,,,,,,,,,,,,,,,,,,,,,,,,,,,,,,,,,,,,,,,85.19325184822083,None,2,2.994079828262329,85.19325184822083,None,,,,,,,,,,,,,,,,,,,,,,,,,,,,,,,,,,,,,,,,,,,,,,,,,,,,,,,,,,,,,,,,,,,,,,,,,,,,,,,,,,,,,,,,,,,,,,,,,,,,,,,,,8006,001,05,2021_Nov_05_1419,task-switching-replication,2021.2.3,59.999542239820556,
,,,05,,,,,,,,,,,,,,,,,,,,,,,,,,,,,,,,,,,,,,,,,,,,,,,,,,,,,,,,,,,,,,,,,,88.28526401519775,None,1,12.398902893066406,88.28526401519775,None,,,,,,,,,,,,,,,,,,,,,,,,,,,,,,,,,,,,,,,,,,,,,,,,,,,,,,,,,,,,,,,,,,,,,,,,,,,,,,,,,,,,,,,,,,,,,,,,,,,8006,001,05,2021_Nov_05_1419,task-switching-replication,2021.2.3,59.999542239820556,
,,,05,,,,,,,,,,,,,,,,,,,,,,,,,,,,,,,,,,,,,,,,,,,,,,,,,,,,,,,,,,,,,,,,,,,,,,,,100.80090594291687,None,2,6.5848069190979,100.80090594291687,None,,,,,,,,,,,,,,,,,,,,,,,,,,,,,,,,,,,,,,,,,,,,,,,,,,,,,,,,,,,,,,,,,,,,,,,,,,,,,,,,,,,,,,,,,,,,,8006,001,05,2021_Nov_05_1419,task-switching-replication,2021.2.3,59.999542239820556,
,,,05,,,,,,,,,,,,,,,,,,,,,,,,,,,,,,,,,,,,,,,,,,,,,,,,,,,,,,,,,,,,,,,,,,,,,,,,,,,,,,107.47989082336426,None,2,2.6333611011505127,107.47989082336426,None,,,,,,,,,,,,,,,,,,,,,,,,,,,,,,,,,,,,,,,,,,,,,,,,,,,,,,,,,,,,,,,,,,,,,,,,,,,,,,,,,,,,,,,8006,001,05,2021_Nov_05_1419,task-switching-replication,2021.2.3,59.999542239820556,
,,,05,,,,,,,,,,,,,,,,,,,,,,,,,,,,,,,,,,,,,,,,,,,,,,,,,,,,,,,,,,,,,,,,,,,,,,,,,,,,,,,,,,,,110.20662188529968,None,1,13.344873189926147,110.20662188529968,None,,,,,,,,,,,,,,,,,,,,,,,,,,,,,,,,,,,,,,,,,,,,,,,,,,,,,,,,,,,,,,,,,,,,,,,,,,,,,,,,,8006,001,05,2021_Nov_05_1419,task-switching-replication,2021.2.3,59.999542239820556,
,,,05,,,,,,,,,,,,,,,,,,,,,,,,,,,,,,,,,,,,,,,,,,,,,,,,,,,,,,,,,,,,,,,,,,,,,,,,,,,,,,,,,,,,,,,,,,123.63443088531494,None,2,2.77713680267334,123.63443088531494,None,,,,,,,,,,,,,,,,,,,,,,,,,,,,,,,,,,,,,,,,,,,,,,,,,,,,,,,,,,,,,,,,,,,,,,,,,,,8006,001,05,2021_Nov_05_1419,task-switching-replication,2021.2.3,59.999542239820556,
,,,05,,,,,,,,,,,,,,,,,,,,,,,,,,,,,,,,,,,,,,,,,,,,,,,,,,,,,,,,,,,,,,,,,,,,,,,,,,,,,,,,,,,,,,,,,,,,,,,,126.48666501045227,None,2,2.0823869705200195,126.48666501045227,None,,,,,,,,,,,,,,,,,,,,,,,,,,,,,,,,,,,,,,,,,,,,,,,,,,,,,,,,,,,,,,,,,,,,,8006,001,05,2021_Nov_05_1419,task-switching-replication,2021.2.3,59.999542239820556,
,,,05,,,,,,,,,,,,,,,,,,,,,,,,,,,,,,,,,,,,,,,,,,,,,,,,,,,,,,,,,,,,,,,,,,,,,,,,,,,,,,,,,,,,,,,,,,,,,,,,,,,,,,128.66726183891296,None,2,8.159725189208984,128.66726183891296,None,,,,,,,,,,,,,,,,,,,,,,,,,,,,,,,,,,,,,,,,,,,,,,,,,,,,,,,,,,,,,,,8006,001,05,2021_Nov_05_1419,task-switching-replication,2021.2.3,59.999542239820556,
1,1,untimed,05,standing,buffer,buffer,dashed,triangle,blue,stimuli/dashed-rectangle.png,stimuli/blue-triangle.png,1,0,0,0,0,,,,,,,,,,,,,,,,,,,,,,,,,,,,,,,,,,,,,,,,,,,,,,,,,,,,,,,,,,,,,,,,,,,,,,,,,,,,,,,,,,,,,,,,,,,,,,,1636140103.472213,136.96794486045837,None,137.97330594062805,None,1,1,0.7542250156402588,137.97330594062805,None,138.8307569026947,None,,,,,,,,,,,,,,,,,,,,,,,,,,,,,,,,,,,,,,,,,,,,,,,,,,,8006,001,05,2021_Nov_05_1419,task-switching-replication,2021.2.3,59.999542239820556,
1,2,untimed,05,standing,switch,incongruant,solid,square,yellow,stimuli/solid-rectangle.png,stimuli/yellow-square.png,2,0,1,1,1,,,,,,,,,,,,,,,,,,,,,,,,,,,,,,,,,,,,,,,,,,,,,,,,,,,,,,,,,,,,,,,,,,,,,,,,,,,,,,,,,,,,,,,,,,,,,,,1636140105.4732103,139.06057000160217,None,140.03218698501587,None,2,1,0.6738810539245605,140.03218698501587,None,140.83086585998535,None,,,,,,,,,,,,,,,,,,,,,,,,,,,,,,,,,,,,,,,,,,,,,,,,,,,8006,001,05,2021_Nov_05_1419,task-switching-replication,2021.2.3,59.999542239820556,
1,3,untimed,05,standing,noswitch,incongruant,solid,triangle,blue,stimuli/solid-rectangle.png,stimuli/blue-triangle.png,1,0,2,2,2,0,0,0,0,,,,,,,,,,,,,,,,,,,,,,,,,,,,,,,,,,,,,,,,,,,,,,,,,,,,,,,,,,,,,,,,,,,,,,,,,,,,,,,,,,,,,,,,,,,1636140108.1919842,141.06065583229065,None,142.03307795524597,None,2,0,1.4107799530029297,142.03307795524597,None,,,143.52206599712372,144.53999304771423,143.55543398857117,None,,,,,,,,,,,,,,,,,,,,,,,,,,,,,,,,,,,,,,,,,,,,,,,8006,001,05,2021_Nov_05_1419,task-switching-replication,2021.2.3,59.999542239820556,
1,3,untimed,05,standing,noswitch,incongruant,solid,triangle,blue,stimuli/solid-rectangle.png,stimuli/blue-triangle.png,1,0,2,2,2,,,,,,,,,,,,,,,,,,,,,,,,,,,,,,,,,,,,,,,,,,,,,,,,,,,,,,,,,,,,,,,,,,,,,,,,,,,,,,,,,,,,,,,,,,,,,,,,,,,,,,,,,148.5838348865509,None,,,,,,,,,,,,,,,,,,,,,,,,,,,,,,,,,,,,,,,,,,,,,,,,,,,8006,001,05,2021_Nov_05_1419,task-switching-replication,2021.2.3,59.999542239820556,
1,4,untimed,05,standing,switch,incongruant,dashed,square,yellow,stimuli/dashed-rectangle.png,stimuli/yellow-square.png,2,0,3,3,3,,,,,,,,,,,,,,,,,,,,,,,,,,,,,,,,,,,,,,,,,,,,,,,,,,,,,,,,,,,,,,,,,,,,,,,,,,,,,,,,,,,,,,,,,,,,,,,1636140115.6720605,148.78128695487976,None,149.7539620399475,None,2,1,1.1645498275756836,149.7539620399475,None,151.03055000305176,None,,,,,,,,,,,,,,,,,,,,,,,,,,,,,,,,,,,,,,,,,,,,,,,,,,,8006,001,05,2021_Nov_05_1419,task-switching-replication,2021.2.3,59.999542239820556,
1,5,untimed,05,standing,switch,incongruant,solid,triangle,yellow,stimuli/solid-rectangle.png,stimuli/yellow-triangle.png,1,0,4,4,4,,,,,,,,,,,,,,,,,,,,,,,,,,,,,,,,,,,,,,,,,,,,,,,,,,,,,,,,,,,,,,,,,,,,,,,,,,,,,,,,,,,,,,,,,,,,,,,1636140118.0925152,151.26006293296814,None,152.23208689689636,None,1,1,1.058577060699463,152.23208689689636,None,153.4501669406891,None,,,,,,,,,,,,,,,,,,,,,,,,,,,,,,,,,,,,,,,,,,,,,,,,,,,8006,001,05,2021_Nov_05_1419,task-switching-replication,2021.2.3,59.999542239820556,
1,6,untimed,05,standing,noswitch,incongruant,solid,square,blue,stimuli/solid-rectangle.png,stimuli/blue-square.png,2,0,5,5,5,,,,,,,,,,,,,,,,,,,,,,,,,,,,,,,,,,,,,,,,,,,,,,,,,,,,,,,,,,,,,,,,,,,,,,,,,,,,,,,,,,,,,,,,,,,,,,,1636140120.0337522,153.68029284477234,None,154.65198302268982,None,2,1,0.5998129844665527,154.65198302268982,None,155.3917019367218,None,,,,,,,,,,,,,,,,,,,,,,,,,,,,,,,,,,,,,,,,,,,,,,,,,,,8006,001,05,2021_Nov_05_1419,task-switching-replication,2021.2.3,59.999542239820556,
1,7,untimed,05,standing,switch,incongruant,dashed,square,blue,stimuli/dashed-rectangle.png,stimuli/blue-square.png,1,0,6,6,6,,,,,,,,,,,,,,,,,,,,,,,,,,,,,,,,,,,,,,,,,,,,,,,,,,,,,,,,,,,,,,,,,,,,,,,,,,,,,,,,,,,,,,,,,,,,,,,1636140122.5132935,155.62149000167847,None,156.5944619178772,None,1,1,1.1594929695129395,156.5944619178772,None,157.87164187431335,None,,,,,,,,,,,,,,,,,,,,,,,,,,,,,,,,,,,,,,,,,,,,,,,,,,,8006,001,05,2021_Nov_05_1419,task-switching-replication,2021.2.3,59.999542239820556,
1,8,untimed,05,standing,noswitch,congruant,dashed,triangle,blue,stimuli/dashed-rectangle.png,stimuli/blue-triangle.png,1,0,7,7,7,,,,,,,,,,,,,,,,,,,,,,,,,,,,,,,,,,,,,,,,,,,,,,,,,,,,,,,,,,,,,,,,,,,,,,,,,,,,,,,,,,,,,,,,,,,,,,,1636140124.4534488,158.10158801078796,None,159.07427191734314,None,1,1,0.5823910236358643,159.07427191734314,None,159.81184887886047,None,,,,,,,,,,,,,,,,,,,,,,,,,,,,,,,,,,,,,,,,,,,,,,,,,,,8006,001,05,2021_Nov_05_1419,task-switching-replication,2021.2.3,59.999542239820556,
1,9,untimed,05,standing,switch,congruant,solid,triangle,blue,stimuli/solid-rectangle.png,stimuli/blue-triangle.png,1,0,8,8,8,,,,,,,,,,,,,,,,,,,,,,,,,,,,,,,,,,,,,,,,,,,,,,,,,,,,,,,,,,,,,,,,,,,,,,,,,,,,,,,,,,,,,,,,,,,,,,,1636140126.573517,160.04166102409363,None,161.01486682891846,None,1,1,0.7589101791381836,161.01486682891846,None,161.93191504478455,None,,,,,,,,,,,,,,,,,,,,,,,,,,,,,,,,,,,,,,,,,,,,,,,,,,,8006,001,05,2021_Nov_05_1419,task-switching-replication,2021.2.3,59.999542239820556,
1,10,untimed,05,standing,switch,incongruant,dashed,triangle,yellow,stimuli/dashed-rectangle.png,stimuli/yellow-triangle.png,2,0,9,9,9,,,,,,,,,,,,,,,,,,,,,,,,,,,,,,,,,,,,,,,,,,,,,,,,,,,,,,,,,,,,,,,,,,,,,,,,,,,,,,,,,,,,,,,,,,,,,,,1636140129.1174877,162.16139197349548,None,163.13474297523499,None,2,1,1.2053508758544922,163.13474297523499,None,164.47519087791443,None,,,,,,,,,,,,,,,,,,,,,,,,,,,,,,,,,,,,,,,,,,,,,,,,,,,8006,001,05,2021_Nov_05_1419,task-switching-replication,2021.2.3,59.999542239820556,
1,11,untimed,05,standing,switch,incongruant,solid,triangle,yellow,stimuli/solid-rectangle.png,stimuli/yellow-triangle.png,1,0,10,10,10,,,,,,,,,,,,,,,,,,,,,,,,,,,,,,,,,,,,,,,,,,,,,,,,,,,,,,,,,,,,,,,,,,,,,,,,,,,,,,,,,,,,,,,,,,,,,,,1636140131.2995334,164.70466995239258,None,165.67790484428406,None,1,1,0.8300189971923828,165.67790484428406,None,166.65711283683777,None,,,,,,,,,,,,,,,,,,,,,,,,,,,,,,,,,,,,,,,,,,,,,,,,,,,8006,001,05,2021_Nov_05_1419,task-switching-replication,2021.2.3,59.999542239820556,
1,12,untimed,05,standing,noswitch,incongruant,solid,square,yellow,stimuli/solid-rectangle.png,stimuli/yellow-square.png,2,0,11,11,11,,,,,,,,,,,,,,,,,,,,,,,,,,,,,,,,,,,,,,,,,,,,,,,,,,,,,,,,,,,,,,,,,,,,,,,,,,,,,,,,,,,,,,,,,,,,,,,1636140133.0586855,166.8873360157013,None,167.859050989151,None,2,1,0.4447150230407715,167.859050989151,None,168.41673183441162,None,,,,,,,,,,,,,,,,,,,,,,,,,,,,,,,,,,,,,,,,,,,,,,,,,,,8006,001,05,2021_Nov_05_1419,task-switching-replication,2021.2.3,59.999542239820556,
,,,05,,,,,,,,,,,,,,,,,,,,,,,,,,,,,,,,,,,,,,,,,,,,,,,,,,,,,,,,,,,,,,,,,,,,,,,,,,,,,,,,,,,,,,,,,,,,,,,,,,,,,,,,,,,,,,,,,,,,,,,,,,,,168.646488904953,None,2,4.5862040519714355,168.646488904953,None,,,,,,,,,,,,,,,,,,,,,,,,,,,,,,,,,,,,,,,,,8006,001,05,2021_Nov_05_1419,task-switching-replication,2021.2.3,59.999542239820556,
,,,05,,,,,,,,,,,,,,,,,,,,,,,,,,,,,,,,,,,,,,,,,,,,,,,,,,,,,,,,,,,,,,,,,,,,,,,,,,,,,,,,,,,,,,,,,,,,,,,,,,,,,,,,,,,,,,,,,,,,,,,,,,,,,,,,,,173.31702399253845,None,2,2.69690203666687,173.31702399253845,None,,,,,,,,,,,,,,,,,,,,,,,,,,,,,,,,,,,8006,001,05,2021_Nov_05_1419,task-switching-replication,2021.2.3,59.999542239820556,
1,1,timed,05,standing,buffer,buffer,dashed,triangle,yellow,stimuli/dashed-rectangle.png,stimuli/yellow-triangle.png,2,,,,,,,,,,,,,0,0,0,0,,,,,0,0,0,0,,,,,,,,,,,,,,,,,,,,,,,,,,,,,,,,,,,,,,,,,,,,,,,,,,,,,,,,,,,,,,,,,,,,,,,,,,,1636140142.7437193,,,,,,,,,,,,,,,,,,,,,,,,,,,,176.14327883720398,None,177.1334228515625,None,1,0,0.8042800426483154,177.1334228515625,None,178.07381999492645,179.09165596961975,178.10667085647583,None,,,,,,,,,,,,,,,,,,,,,,8006,001,05,2021_Nov_05_1419,task-switching-replication,2021.2.3,59.999542239820556,
1,1,timed,05,standing,buffer,buffer,dashed,triangle,yellow,stimuli/dashed-rectangle.png,stimuli/yellow-triangle.png,2,,,,,,,,,,,,,0,0,0,0,,,,,,,,,,,,,,,,,,,,,,,,,,,,,,,,,,,,,,,,,,,,,,,,,,,,,,,,,,,,,,,,,,,,,,,,,,,,,,,,,,,,,,,,,,,,,183.1324679851532,None,,,,,,,,,,,,,,,,,,,,,,,,,,,,,,,,,,,,,,,,,,,,,,,,,,,8006,001,05,2021_Nov_05_1419,task-switching-replication,2021.2.3,59.999542239820556,
1,2,timed,05,standing,switch,incongruant,solid,triangle,yellow,stimuli/solid-rectangle.png,stimuli/yellow-triangle.png,1,,,,,,,,,,,,,0,1,1,1,,,,,,,,,,,,,,,,,,,,,,,,,,,,,,,,,,,,,,,,,,,,,,,,,,,,,,,,,,,,,,,,,,,,,,,,,,,,,,,,,,,1636140150.0472143,,,,,,,,,,185.40579199790955,None,,,,,,,,,,,,,,,,,183.3292829990387,None,184.3193519115448,None,1,1,0.9333069324493408,184.3193519115448,None,,,,,,,,,,,,,,,,,,,,,,,,,,8006,001,05,2021_Nov_05_1419,task-switching-replication,2021.2.3,59.999542239820556,
1,3,timed,05,standing,switch,incongruant,dashed,square,yellow,stimuli/dashed-rectangle.png,stimuli/yellow-square.png,2,,,,,,,,,,,,,0,2,2,2,,,,,,,,,,,,,,,,,,,,,,,,,,,,,,,,,,,,,,,,,,,,,,,,,,,,,,,,,,,,,,,,,,,,,,,,,,,,,,,,,,,1636140152.1182926,,,,,,,,,,187.47576785087585,None,,,,,,,,,,,,,,,,,185.63512086868286,None,186.62625885009766,None,2,1,0.7259042263031006,186.62625885009766,None,,,,,,,,,,,,,,,,,,,,,,,,,,8006,001,05,2021_Nov_05_1419,task-switching-replication,2021.2.3,59.999542239820556,
1,4,timed,05,standing,switch,congruant,solid,square,yellow,stimuli/solid-rectangle.png,stimuli/yellow-square.png,2,,,,,,,,,,,,,0,3,3,3,,,,,,,,,,,,,,,,,,,,,,,,,,,,,,,,,,,,,,,,,,,,,,,,,,,,,,,,,,,,,,,,,,,,,,,,,,,,,,,,,,,1636140154.008943,,,,,,,,,,189.36738300323486,None,,,,,,,,,,,,,,,,,187.70618987083435,None,188.6957550048828,None,2,1,0.549983024597168,188.6957550048828,None,,,,,,,,,,,,,,,,,,,,,,,,,,8006,001,05,2021_Nov_05_1419,task-switching-replication,2021.2.3,59.999542239820556,
1,5,timed,05,standing,noswitch,incongruant,solid,triangle,blue,stimuli/solid-rectangle.png,stimuli/blue-triangle.png,1,,,,,,,,,,,,,0,4,4,4,,,,,,,,,,,,,,,,,,,,,,,,,,,,,,,,,,,,,,,,,,,,,,,,,,,,,,,,,,,,,,,,,,,,,,,,,,,,,,,,,,,1636140155.8444464,,,,,,,,,,191.20208096504211,None,,,,,,,,,,,,,,,,,189.59678292274475,None,190.5873520374298,None,1,1,0.4810957908630371,190.5873520374298,None,,,,,,,,,,,,,,,,,,,,,,,,,,8006,001,05,2021_Nov_05_1419,task-switching-replication,2021.2.3,59.999542239820556,
1,6,timed,05,standing,noswitch,congruant,solid,triangle,yellow,stimuli/solid-rectangle.png,stimuli/yellow-triangle.png,1,,,,,,,,,,,,,0,5,5,5,,,,,,,,,,,,,,,,,,,,,,,,,,,,,,,,,,,,,,,,,,,,,,,,,,,,,,,,,,,,,,,,,,,,,,,,,,,,,,,,,,,1636140157.8526711,,,,,,,,,,193.21107387542725,None,,,,,,,,,,,,,,,,,191.43109798431396,None,192.42119693756104,None,1,1,0.6462969779968262,192.42119693756104,None,,,,,,,,,,,,,,,,,,,,,,,,,,8006,001,05,2021_Nov_05_1419,task-switching-replication,2021.2.3,59.999542239820556,
1,7,timed,05,standing,switch,congruant,dashed,triangle,blue,stimuli/dashed-rectangle.png,stimuli/blue-triangle.png,1,,,,,,,,,,,,,0,6,6,6,,,,,,,,,,,,,,,,,,,,,,,,,,,,,,,,,,,,,,,,,,,,,,,,,,,,,,,,,,,,,,,,,,,,,,,,,,,,,,,,,,,1636140159.6244798,,,,,,,,,,194.98292183876038,None,,,,,,,,,,,,,,,,,193.44053483009338,None,194.43018293380737,None,1,1,0.4493680000305176,194.43018293380737,None,,,,,,,,,,,,,,,,,,,,,,,,,,8006,001,05,2021_Nov_05_1419,task-switching-replication,2021.2.3,59.999542239820556,
1,8,timed,05,standing,noswitch,congruant,dashed,square,blue,stimuli/dashed-rectangle.png,stimuli/blue-square.png,1,,,,,,,,,,,,,0,7,7,7,,,,,,,,,,,,,,,,,,,,,,,,,,,,,,,,,,,,,,,,,,,,,,,,,,,,,,,,,,,,,,,,,,,,,,,,,,,,,,,,,,,1636140161.3962822,,,,,,,,,,196.75467205047607,None,,,,,,,,,,,,,,,,,195.21230792999268,None,196.20233988761902,None,1,1,0.45113706588745117,196.20233988761902,None,,,,,,,,,,,,,,,,,,,,,,,,,,8006,001,05,2021_Nov_05_1419,task-switching-replication,2021.2.3,59.999542239820556,
1,9,timed,05,standing,switch,congruant,solid,triangle,blue,stimuli/solid-rectangle.png,stimuli/blue-triangle.png,1,,,,,,,,,,,,,0,8,8,8,,,,,,,,,,,,,,,,,,,,,,,,,,,,,,,,,,,,,,,,,,,,,,,,,,,,,,,,,,,,,,,,,,,,,,,,,,,,,,,,,,,1636140163.226519,,,,,,,,,,198.58491396903992,None,,,,,,,,,,,,,,,,,196.98389601707458,None,197.9733829498291,None,1,1,0.4810671806335449,197.9733829498291,None,,,,,,,,,,,,,,,,,,,,,,,,,,8006,001,05,2021_Nov_05_1419,task-switching-replication,2021.2.3,59.999542239820556,
1,10,timed,05,standing,noswitch,incongruant,solid,square,yellow,stimuli/solid-rectangle.png,stimuli/yellow-square.png,2,,,,,,,,,,,,,0,9,9,9,,,,,,,,,,,,,,,,,,,,,,,,,,,,,,,,,,,,,,,,,,,,,,,,,,,,,,,,,,,,,,,,,,,,,,,,,,,,,,,,,,,1636140165.4167233,,,,,,,,,,200.77437782287598,None,,,,,,,,,,,,,,,,,198.81420397758484,None,199.8039789199829,None,2,1,0.8167920112609863,199.8039789199829,None,,,,,,,,,,,,,,,,,,,,,,,,,,8006,001,05,2021_Nov_05_1419,task-switching-replication,2021.2.3,59.999542239820556,
1,11,timed,05,standing,switch,congruant,dashed,square,yellow,stimuli/dashed-rectangle.png,stimuli/yellow-square.png,2,,,,,,,,,,,,,0,10,10,10,,,,,,,,,,,,,,,,,,,,,,,,,,,,,,,,,,,,,,,,,,,,,,,,,,,,,,,,,,,,,,,,,,,,,,,,,,,,,,,,,,,1636140167.5433147,,,,,,,,,,202.90187788009644,None,,,,,,,,,,,,,,,,,201.00383281707764,None,201.99403190612793,None,2,1,0.7925889492034912,201.99403190612793,None,,,,,,,,,,,,,,,,,,,,,,,,,,8006,001,05,2021_Nov_05_1419,task-switching-replication,2021.2.3,59.999542239820556,
1,12,timed,05,standing,switch,congruant,solid,square,blue,stimuli/solid-rectangle.png,stimuli/blue-square.png,2,,,,,,,,,,,,,0,11,11,11,,,,,,,,,,,,,,,,,,,,,,,,,,,,,,,,,,,,,,,,,,,,,,,,,,,,,,,,,,,,,,,,,,,,,,,,,,,,,,,,,,,1636140169.611281,,,,,,,,,,204.9697859287262,None,,,,,,,,,,,,,,,,,203.13118386268616,None,204.12110996246338,None,2,1,0.730881929397583,204.12110996246338,None,,,,,,,,,,,,,,,,,,,,,,,,,,8006,001,05,2021_Nov_05_1419,task-switching-replication,2021.2.3,59.999542239820556,
1,13,timed,05,standing,switch,congruant,dashed,square,yellow,stimuli/dashed-rectangle.png,stimuli/yellow-square.png,2,,,,,,,,,,,,,0,12,12,12,,,,,0,0,0,0,,,,,,,,,,,,,,,,,,,,,,,,,,,,,,,,,,,,,,,,,,,,,,,,,,,,,,,,,,,,,,,,,,,,,,,,,,,1636140172.094378,,,,,,,,,,,,,,,,,,,,,,,,,,,,205.19945693016052,None,206.1896629333496,None,1,0,1.1629478931427002,206.1896629333496,None,207.4244669675827,208.4426200389862,207.45724892616272,None,,,,,,,,,,,,,,,,,,,,,,8006,001,05,2021_Nov_05_1419,task-switching-replication,2021.2.3,59.999542239820556,
1,13,timed,05,standing,switch,congruant,dashed,square,yellow,stimuli/dashed-rectangle.png,stimuli/yellow-square.png,2,,,,,,,,,,,,,0,12,12,12,,,,,,,,,,,,,,,,,,,,,,,,,,,,,,,,,,,,,,,,,,,,,,,,,,,,,,,,,,,,,,,,,,,,,,,,,,,,,,,,,,,,,,,,,,,,,212.48560094833374,None,,,,,,,,,,,,,,,,,,,,,,,,,,,,,,,,,,,,,,,,,,,,,,,,,,,8006,001,05,2021_Nov_05_1419,task-switching-replication,2021.2.3,59.999542239820556,
1,14,timed,05,standing,noswitch,congruant,dashed,triangle,yellow,stimuli/dashed-rectangle.png,stimuli/yellow-triangle.png,2,,,,,,,,,,,,,0,13,13,13,,,,,,,,,,,,,,,,,,,,,,,,,,,,,,,,,,,,,,,,,,,,,,,,,,,,,,,,,,,,,,,,,,,,,,,,,,,,,,,,,,,1636140179.1634526,,,,,,,,,,214.52103304862976,None,,,,,,,,,,,,,,,,,212.68207001686096,None,213.67140102386475,None,2,1,0.7205989360809326,213.67140102386475,None,,,,,,,,,,,,,,,,,,,,,,,,,,8006,001,05,2021_Nov_05_1419,task-switching-replication,2021.2.3,59.999542239820556,
1,15,timed,05,standing,switch,incongruant,solid,triangle,yellow,stimuli/solid-rectangle.png,stimuli/yellow-triangle.png,1,,,,,,,,,,,,,0,14,14,14,,,,,,,,,,,,,,,,,,,,,,,,,,,,,,,,,,,,,,,,,,,,,,,,,,,,,,,,,,,,,,,,,,,,,,,,,,,,,,,,,,,1636140181.4085906,,,,,,,,,,216.76691484451294,None,,,,,,,,,,,,,,,,,214.7501299381256,None,215.7403049468994,None,1,1,0.9213380813598633,215.7403049468994,None,,,,,,,,,,,,,,,,,,,,,,,,,,8006,001,05,2021_Nov_05_1419,task-switching-replication,2021.2.3,59.999542239820556,
1,16,timed,05,standing,noswitch,congruant,solid,triangle,blue,stimuli/solid-rectangle.png,stimuli/blue-triangle.png,1,,,,,,,,,,,,,0,15,15,15,,,,,,,,,,,,,,,,,,,,,,,,,,,,,,,,,,,,,,,,,,,,,,,,,,,,,,,,,,,,,,,,,,,,,,,,,,,,,,,,,,,1636140183.4752536,,,,,,,,,,218.83355402946472,None,,,,,,,,,,,,,,,,,216.99606585502625,None,217.98551988601685,None,1,1,0.7099649906158447,217.98551988601685,None,,,,,,,,,,,,,,,,,,,,,,,,,,8006,001,05,2021_Nov_05_1419,task-switching-replication,2021.2.3,59.999542239820556,
1,17,timed,05,standing,noswitch,incongruant,solid,square,blue,stimuli/solid-rectangle.png,stimuli/blue-square.png,2,,,,,,,,,,,,,0,16,16,16,,,,,,,,,,,,,,,,,,,,,,,,,,,,,,,,,,,,,,,,,,,,,,,,,,,,,,,,,,,,,,,,,,,,,,,,,,,,,,,,,,,1636140185.3057668,,,,,,,,,,220.6633620262146,None,,,,,,,,,,,,,,,,,219.0624840259552,None,220.05206084251404,None,2,1,0.487354040145874,220.05206084251404,None,,,,,,,,,,,,,,,,,,,,,,,,,,8006,001,05,2021_Nov_05_1419,task-switching-replication,2021.2.3,59.999542239820556,
1,18,timed,05,standing,switch,incongruant,dashed,square,blue,stimuli/dashed-rectangle.png,stimuli/blue-square.png,1,,,,,,,,,,,,,0,17,17,17,,,,,,,,,,,,,,,,,,,,,,,,,,,,,,,,,,,,,,,,,,,,,,,,,,,,,,,,,,,,,,,,,,,,,,,,,,,,,,,,,,,1636140187.491613,,,,,,,,,,222.84932494163513,None,,,,,,,,,,,,,,,,,220.8926179409027,None,221.88204097747803,None,1,1,0.8036279678344727,221.88204097747803,None,,,,,,,,,,,,,,,,,,,,,,,,,,8006,001,05,2021_Nov_05_1419,task-switching-replication,2021.2.3,59.999542239820556,
1,19,timed,05,standing,noswitch,incongruant,dashed,triangle,yellow,stimuli/dashed-rectangle.png,stimuli/yellow-triangle.png,2,,,,,,,,,,,,,0,18,18,18,,,,,0,0,0,0,,,,,,,,,,,,,,,,,,,,,,,,,,,,,,,,,,,,,,,,,,,,,,,,,,,,,,,,,,,,,,,,,,,,,,,,,,,1636140189.9134524,,,,,,,,,,,,,,,,,,,,,,,,,,,,223.07852602005005,None,224.06791496276855,None,1,0,1.098341941833496,224.06791496276855,None,225.2435668706894,226.26266193389893,225.27712893486023,None,,,,,,,,,,,,,,,,,,,,,,8006,001,05,2021_Nov_05_1419,task-switching-replication,2021.2.3,59.999542239820556,
1,19,timed,05,standing,noswitch,incongruant,dashed,triangle,yellow,stimuli/dashed-rectangle.png,stimuli/yellow-triangle.png,2,,,,,,,,,,,,,0,18,18,18,,,,,,,,,,,,,,,,,,,,,,,,,,,,,,,,,,,,,,,,,,,,,,,,,,,,,,,,,,,,,,,,,,,,,,,,,,,,,,,,,,,,,,,,,,,,,230.3042278289795,None,,,,,,,,,,,,,,,,,,,,,,,,,,,,,,,,,,,,,,,,,,,,,,,,,,,8006,001,05,2021_Nov_05_1419,task-switching-replication,2021.2.3,59.999542239820556,
1,20,timed,05,standing,noswitch,incongruant,dashed,triangle,blue,stimuli/dashed-rectangle.png,stimuli/blue-triangle.png,1,,,,,,,,,,,,,0,19,19,19,,,,,,,,,,,,,,,,,,,,,,,,,,,,,,,,,,,,,,,,,,,,,,,,,,,,,,,,,,,,,,,,,,,,,,,,,,,,,,,,,,,1636140197.2773416,,,,,,,,,,232.6355619430542,None,,,,,,,,,,,,,,,,,230.5017728805542,None,231.4906928539276,None,1,1,0.9956581592559814,231.4906928539276,None,,,,,,,,,,,,,,,,,,,,,,,,,,8006,001,05,2021_Nov_05_1419,task-switching-replication,2021.2.3,59.999542239820556,
1,21,timed,05,standing,switch,incongruant,solid,square,blue,stimuli/solid-rectangle.png,stimuli/blue-square.png,2,,,,,,,,,,,,,0,20,20,20,0,0,0,0,,,,,,,,,,,,,,,,,,,,,,,,,,,,,,,,,,,,,,,,,,,,,,,,,,,,,,,,,,,,,,,,,,,,,,,,,,,,,,,1636140199.9976783,,,,,,,,,,,,235.3370312213898,236.38769388198853,235.36815285682678,None,,,,,,,,,,,,,232.8648238182068,None,233.85540986061096,None,None,0,,233.85540986061096,None,,,,,,,,,,,,,,,,,,,,,,,,,,8006,001,05,2021_Nov_05_1419,task-switching-replication,2021.2.3,59.999542239820556,
1,21,timed,05,standing,switch,incongruant,solid,square,blue,stimuli/solid-rectangle.png,stimuli/blue-square.png,2,,,,,,,,,,,,,0,20,20,20,,,,,,,,,,,,,,,,,,,,,,,,,,,,,,,,,,,,,,,,,,,,,,,,,,,,,,,,,,,,,,,,,,,,,,,,,,,,,,,,,,,,,,,,,,,,,240.39426493644714,None,,,,,,,,,,,,,,,,,,,,,,,,,,,,,,,,,,,,,,,,,,,,,,,,,,,8006,001,05,2021_Nov_05_1419,task-switching-replication,2021.2.3,59.999542239820556,
1,22,timed,05,standing,switch,incongruant,dashed,triangle,blue,stimuli/dashed-rectangle.png,stimuli/blue-triangle.png,1,,,,,,,,,,,,,0,21,21,21,,,,,,,,,,,,,,,,,,,,,,,,,,,,,,,,,,,,,,,,,,,,,,,,,,,,,,,,,,,,,,,,,,,,,,,,,,,,,,,,,,,1636140207.3069365,,,,,,,,,,242.6652328968048,None,,,,,,,,,,,,,,,,,240.5909779071808,None,241.57978796958923,None,1,1,0.9374098777770996,241.57978796958923,None,,,,,,,,,,,,,,,,,,,,,,,,,,8006,001,05,2021_Nov_05_1419,task-switching-replication,2021.2.3,59.999542239820556,
1,23,timed,05,standing,noswitch,congruant,dashed,square,blue,stimuli/dashed-rectangle.png,stimuli/blue-square.png,1,,,,,,,,,,,,,0,22,22,22,,,,,,,,,,,,,,,,,,,,,,,,,,,,,,,,,,,,,,,,,,,,,,,,,,,,,,,,,,,,,,,,,,,,,,,,,,,,,,,,,,,1636140209.1365063,,,,,,,,,,244.49499487876892,None,,,,,,,,,,,,,,,,,242.89451694488525,None,243.88360404968262,None,1,1,0.50154709815979,243.88360404968262,None,,,,,,,,,,,,,,,,,,,,,,,,,,8006,001,05,2021_Nov_05_1419,task-switching-replication,2021.2.3,59.999542239820556,
1,24,timed,05,standing,switch,incongruant,solid,square,yellow,stimuli/solid-rectangle.png,stimuli/yellow-square.png,2,,,,,,,,,,,,,0,23,23,23,,,,,,,,,,,,,,,,,,,,,,,,,,,,,,,,,,,,,,,,,,,,,,,,,,,,,,,,,,,,,,,,,,,,,,,,,,,,,,,,,,,1636140211.3231695,,,,,,,,,,246.68063282966614,None,,,,,,,,,,,,,,,,,244.7242419719696,None,245.71330785751343,None,2,1,0.8439691066741943,245.71330785751343,None,,,,,,,,,,,,,,,,,,,,,,,,,,8006,001,05,2021_Nov_05_1419,task-switching-replication,2021.2.3,59.999542239820556,
1,1,experiment,05,standing,buffer,buffer,solid,triangle,blue,stimuli/solid-rectangle.png,stimuli/blue-triangle.png,1,,,,,,,,,,,,,,,,,,,,,,,,,0,0,0,0,0,0,0,0,0,0,0,0,,,,,,,,,246.92367482185364,None,2,2.9477579593658447,246.92367482185364,None,,,,,,,,,,,,,,,,,,,,,,,,,,,,,,,,,,,,,,,,,,,,,,,,,1636140221.6380906,,,,,,,,,,256.996465921402,None,,,,,,,,,,,,,,,,,,,,,,,,,,,,,,249.9525909423828,None,2,1.5756940841674805,249.9525909423828,None,251.66850686073303,None,2,2.7509000301361084,251.66850686073303,None,254.5662989616394,None,255.55549597740173,None,1,1,1.2819218635559082,255.55549597740173,None,8006,001,05,2021_Nov_05_1419,task-switching-replication,2021.2.3,59.999542239820556,
1,2,experiment,05,standing,switch,incongruant,dashed,square,yellow,stimuli/dashed-rectangle.png,stimuli/yellow-square.png,2,,,,,,,,,,,,,,,,,,,,,,,,,0,0,0,0,0,0,0,0,0,1,1,1,,,,,,,,,,,,,,,,,,,,,,,,,,,,,,,,,,,,,,,,,,,,,,,,,,,,,,,,,,,,,,,1636140223.648179,,,,,,,,,,259.0060179233551,None,,,,,,,,,,,,,,,,,,,,,,,,,,,,,,,,,,,,,,,,,,257.2263638973236,None,258.21557998657227,None,2,1,0.6660408973693848,258.21557998657227,None,8006,001,05,2021_Nov_05_1419,task-switching-replication,2021.2.3,59.999542239820556,
1,3,experiment,05,standing,noswitch,congruant,dashed,square,yellow,stimuli/dashed-rectangle.png,stimuli/yellow-square.png,2,,,,,,,,,,,,,,,,,,,,,,,,,0,0,0,0,0,0,0,0,0,2,2,2,,,,,,,,,,,,,,,,,,,,,,,,,,,,,,,,,,,,,,,,,,,,,,,,,,,,,,,,,,,,,,,1636140225.655211,,,,,,,,,,261.01350498199463,None,,,,,,,,,,,,,,,,,,,,,,,,,,,,,,,,,,,,,,,,,,259.2353448867798,None,260.2244348526001,None,2,1,0.6667931079864502,260.2244348526001,None,8006,001,05,2021_Nov_05_1419,task-switching-replication,2021.2.3,59.999542239820556,
1,4,experiment,05,standing,noswitch,incongruant,dashed,square,blue,stimuli/dashed-rectangle.png,stimuli/blue-square.png,1,,,,,,,,,,,,,,,,,,,,,,,,,0,0,0,0,0,0,0,0,0,3,3,3,,,,,,,,,,,,,,,,,,,,,,,,,,,,,,,,,,,,,,,,,,,,,,,,,,,,,,,,,,,,,,,1636140227.4308178,,,,,,,,,,262.7883720397949,None,,,,,,,,,,,,,,,,,,,,,,,,,,,,,,,,,,,,,,,,,,261.24271392822266,None,262.23280692100525,None,1,1,0.4264960289001465,262.23280692100525,None,8006,001,05,2021_Nov_05_1419,task-switching-replication,2021.2.3,59.999542239820556,
1,5,experiment,05,standing,noswitch,congruant,dashed,square,blue,stimuli/dashed-rectangle.png,stimuli/blue-square.png,1,,,,,,,,,,,,,,,,,,,,,,,,,0,0,0,0,0,0,0,0,0,4,4,4,,,,,,,,,,,,,,,,,,,,,,,,,,,,,,,,,,,,,,,,,,,,,,,,,,,,,,,,,,,,,,,1636140229.556948,,,,,,,,,,264.9153959751129,None,,,,,,,,,,,,,,,,,,,,,,,,,,,,,,,,,,,,,,,,,,263.01750087738037,None,264.0072238445282,None,1,1,0.7648851871490479,264.0072238445282,None,8006,001,05,2021_Nov_05_1419,task-switching-replication,2021.2.3,59.999542239820556,
1,6,experiment,05,standing,switch,incongruant,solid,square,blue,stimuli/solid-rectangle.png,stimuli/blue-square.png,2,,,,,,,,,,,,,,,,,,,,,,,,,0,0,0,0,0,0,0,0,0,5,5,5,,,,,,,,,,,,,,,,,,,,,,,,,,,,,,,,,,,,,,,,,,,,,,,,,,,,,,,,,,,,,,,1636140231.8093543,,,,,,,,,,267.166846036911,None,,,,,,,,,,,,,,,,,,,,,,,,,,,,,,,,,,,,,,,,,,265.1446490287781,None,266.1344759464264,None,2,1,0.9076180458068848,266.1344759464264,None,8006,001,05,2021_Nov_05_1419,task-switching-replication,2021.2.3,59.999542239820556,
1,7,experiment,05,standing,switch,incongruant,dashed,triangle,blue,stimuli/dashed-rectangle.png,stimuli/blue-triangle.png,1,,,,,,,,,,,,,,,,,,,,,,,,,0,0,0,0,0,0,0,0,0,6,6,6,,,,,,,,,,,,,,,,,,,,,,,,,,,,,,,,,,,,,,,,,,,,,,,,,,,,,,,,,,,,,,,1636140234.296922,,,,,,,,,,269.65444684028625,None,,,,,,,,,,,,,,,,,,,,,,,,,,,,,,,,,,,,,,,,,,267.3963780403137,None,268.38638186454773,None,1,1,1.1436021327972412,268.38638186454773,None,8006,001,05,2021_Nov_05_1419,task-switching-replication,2021.2.3,59.999542239820556,
1,8,experiment,05,standing,switch,congruant,solid,triangle,blue,stimuli/solid-rectangle.png,stimuli/blue-triangle.png,1,,,,,,,,,,,,,,,,,,,,,,,,,0,0,0,0,0,0,0,0,0,7,7,7,,,,,,,,,,,,,,,,,,,,,,,,,,,,,,,,,,,,,,,,,,,,,,,,,,,,,,,,,,,,,,,1636140236.4822133,,,,,,,,,,271.84059882164,None,,,,,,,,,,,,,,,,,,,,,,,,,,,,,,,,,,,,,,,,,,269.8839838504791,None,270.8733739852905,None,1,1,0.821674108505249,270.8733739852905,None,8006,001,05,2021_Nov_05_1419,task-switching-replication,2021.2.3,59.999542239820556,
1,9,experiment,05,standing,noswitch,incongruant,solid,square,blue,stimuli/solid-rectangle.png,stimuli/blue-square.png,2,,,,,,,,,,,,,,,,,,,,,,,,,0,0,0,0,0,0,0,0,0,8,8,8,,,,,,,,,,,,,,,,,,,,,,,,,,,,,,,,,,,,,,,,,,,,,,,,,,,,,,,,,,,,,,,1636140238.5513911,,,,,,,,,,273.9089949131012,None,,,,,,,,,,,,,,,,,,,,,,,,,,,,,,,,,,,,,,,,,,272.06994795799255,None,273.058846950531,None,2,1,0.70660400390625,273.058846950531,None,8006,001,05,2021_Nov_05_1419,task-switching-replication,2021.2.3,59.999542239820556,
1,10,experiment,05,standing,noswitch,incongruant,solid,triangle,yellow,stimuli/solid-rectangle.png,stimuli/yellow-triangle.png,1,,,,,,,,,,,,,,,,,,,,,,,,,0,0,0,0,0,0,0,0,0,9,9,9,,,,,,,,,,,,,,,,,,,,,,,,,,,,,,,,,,,,,,,,,,,,,,,,,,,,,,,,,,,,,,,1636140240.6811786,,,,,,,,,,276.040109872818,None,,,,,,,,,,,,,,,,,,,,,,,,,,,,,,,,,,,,,,,,,,274.13866686820984,None,275.12878799438477,None,1,1,0.7612888813018799,275.12878799438477,None,8006,001,05,2021_Nov_05_1419,task-switching-replication,2021.2.3,59.999542239820556,
1,11,experiment,05,standing,noswitch,incongruant,solid,square,blue,stimuli/solid-rectangle.png,stimuli/blue-square.png,2,,,,,,,,,,,,,,,,,,,,,,,,,0,0,0,0,0,0,0,0,0,10,10,10,,,,,,,,,,,,,,,,,,,,,,,,,,,,,,,,,,,,,,,,,,,,,,,,,,,,,,,,,,,,,,,1636140242.5749888,,,,,,,,,,277.9325828552246,None,,,,,,,,,,,,,,,,,,,,,,,,,,,,,,,,,,,,,,,,,,276.26968693733215,None,277.2597608566284,None,2,1,0.5243170261383057,277.2597608566284,None,8006,001,05,2021_Nov_05_1419,task-switching-replication,2021.2.3,59.999542239820556,
1,12,experiment,05,standing,switch,incongruant,dashed,triangle,blue,stimuli/dashed-rectangle.png,stimuli/blue-triangle.png,1,,,,,,,,,,,,,,,,,,,,,,,,,0,0,0,0,0,0,0,0,0,11,11,11,,,,,,,,,,,,,,,,,,,,,,,,,,,,,,,,,,,,,,,,,,,,,,,,,,,,,,,,,,,,,,,1636140244.5857255,,,,,,,,,,279.9435420036316,None,,,,,,,,,,,,,,,,,,,,,,,,,,,,,,,,,,,,,,,,,,278.1621370315552,None,279.15245604515076,None,1,1,0.6425352096557617,279.15245604515076,None,8006,001,05,2021_Nov_05_1419,task-switching-replication,2021.2.3,59.999542239820556,
1,13,experiment,05,standing,noswitch,incongruant,dashed,triangle,yellow,stimuli/dashed-rectangle.png,stimuli/yellow-triangle.png,2,,,,,,,,,,,,,,,,,,,,,,,,,0,0,0,0,0,0,0,0,0,12,12,12,,,,,,,,,,,,,,,,,,,,,,,,,,,,,,,,,,,,,,,,,,,,,,,,,,,,,,,,,,,,,,,1636140246.7196145,,,,,,,,,,282.0771179199219,None,,,,,,,,,,,,,,,,,,,,,,,,,,,,,,,,,,,,,,,,,,280.17330598831177,None,281.1654179096222,None,2,1,0.7779037952423096,281.1654179096222,None,8006,001,05,2021_Nov_05_1419,task-switching-replication,2021.2.3,59.999542239820556,
1,14,experiment,05,standing,switch,congruant,solid,square,blue,stimuli/solid-rectangle.png,stimuli/blue-square.png,2,,,,,,,,,,,,,,,,,,,,,,,,,0,0,0,0,0,0,0,0,0,13,13,13,,,,,,,,,,,,,,,,,,,,,,,,,,,,,,,,,,,,,,,,,,,,,,,,,,,,,,,,,,,,,,,1636140248.7870917,,,,,,,,,,284.1456689834595,None,,,,,,,,,,,,,,,,,,,,,,,,,,,,,,,,,,,,,,,,,,282.306599855423,None,283.2967028617859,None,2,1,0.7494211196899414,283.2967028617859,None,8006,001,05,2021_Nov_05_1419,task-switching-replication,2021.2.3,59.999542239820556,
1,15,experiment,05,standing,switch,congruant,dashed,square,yellow,stimuli/dashed-rectangle.png,stimuli/yellow-square.png,2,,,,,,,,,,,,,,,,,,,,,,,,,0,0,0,0,0,0,0,0,0,14,14,14,,,,,,,,,,,,,,,,,,,,,,,,,,,,,,,,,,,,,,,,,,,,,,,,,,,,,,,,,,,,,,,1636140251.3884058,,,,,,,,,,286.746798992157,None,,,,,,,,,,,,,,,,,,,,,,,,,,,,,,,,,,,,,,,,,,284.3752820491791,None,285.36513590812683,None,2,1,1.2269740104675293,285.36513590812683,None,8006,001,05,2021_Nov_05_1419,task-switching-replication,2021.2.3,59.999542239820556,
1,16,experiment,05,standing,switch,congruant,solid,square,yellow,stimuli/solid-rectangle.png,stimuli/yellow-square.png,2,,,,,,,,,,,,,,,,,,,,,,,,,0,0,0,0,0,0,0,0,0,15,15,15,,,,,,,,,,,,,,,,,,,,,,,,,,,,,,,,,,,,,,,,,,,,,,,,,,,,,,,,,,,,,,,1636140253.9315302,,,,,,,,,,289.290002822876,None,,,,,,,,,,,,,,,,,,,,,,,,,,,,,,,,,,,,,,,,,,286.9771499633789,None,287.9669940471649,None,2,1,1.2130749225616455,287.9669940471649,None,8006,001,05,2021_Nov_05_1419,task-switching-replication,2021.2.3,59.999542239820556,
1,17,experiment,05,standing,switch,congruant,dashed,triangle,yellow,stimuli/dashed-rectangle.png,stimuli/yellow-triangle.png,2,,,,,,,,,,,,,,,,,,,,,,,,,0,0,0,0,0,0,0,0,0,16,16,16,,,,,0,0,0,0,,,,,,,,,,,,,,,,,,,,,,,,,,,,,,,,,,,,,,,,,,,,,,,,,,,,,,,1636140256.5312152,,,,,,,,,,,,,,,,,,,,,,,,,,,,,,,,,,,,,291.86143887043,292.879674911499,291.893926858902,None,,,,,,,,,,,,,289.5191879272461,None,290.50782585144043,None,1,0,1.2223291397094727,290.50782585144043,None,8006,001,05,2021_Nov_05_1419,task-switching-replication,2021.2.3,59.999542239820556,
1,17,experiment,05,standing,switch,congruant,dashed,triangle,yellow,stimuli/dashed-rectangle.png,stimuli/yellow-triangle.png,2,,,,,,,,,,,,,,,,,,,,,,,,,0,0,0,0,0,0,0,0,0,16,16,16,,,,,,,,,,,,,,,,,,,,,,,,,,,,,,,,,,,,,,,,,,,,,,,,,,,,,,,,,,,,,,,,,,,,,,,,,296.9212498664856,None,,,,,,,,,,,,,,,,,,,,,,,,,,,,,,,,,,,,,,,,,,,,,,,,,,,8006,001,05,2021_Nov_05_1419,task-switching-replication,2021.2.3,59.999542239820556,
1,18,experiment,05,standing,noswitch,congruant,dashed,square,yellow,stimuli/dashed-rectangle.png,stimuli/yellow-square.png,2,,,,,,,,,,,,,,,,,,,,,,,,,0,0,0,0,0,0,0,0,0,17,17,17,,,,,,,,,,,,,,,,,,,,,,,,,,,,,,,,,,,,,,,,,,,,,,,,,,,,,,,,,,,,,,,1636140263.955087,,,,,,,,,,299.312814950943,None,,,,,,,,,,,,,,,,,,,,,,,,,,,,,,,,,,,,,,,,,,297.1179509162903,None,298.10674691200256,None,2,1,1.0673201084136963,298.10674691200256,None,8006,001,05,2021_Nov_05_1419,task-switching-replication,2021.2.3,59.999542239820556,
1,19,experiment,05,standing,switch,incongruant,solid,triangle,blue,stimuli/solid-rectangle.png,stimuli/blue-triangle.png,1,,,,,,,,,,,,,,,,,,,,,,,,,0,0,0,0,0,0,0,0,0,18,18,18,,,,,,,,,,,,,,,,,,,,,,,,,,,,,,,,,,,,,,,,,,,,,,,,,,,,,,,,,,,,,,,1636140265.9076385,,,,,,,,,,301.26533603668213,None,,,,,,,,,,,,,,,,,,,,,,,,,,,,,,,,,,,,,,,,,,299.5420038700104,None,300.53141593933105,None,1,1,0.584954023361206,300.53141593933105,None,8006,001,05,2021_Nov_05_1419,task-switching-replication,2021.2.3,59.999542239820556,
1,20,experiment,05,standing,switch,congruant,dashed,square,blue,stimuli/dashed-rectangle.png,stimuli/blue-square.png,1,,,,,,,,,,,,,,,,,,,,,,,,,0,0,0,0,0,0,0,0,0,19,19,19,,,,,,,,,,,,,,,,,,,,,,,,,,,,,,,,,,,,,,,,,,,,,,,,,,,,,,,,,,,,,,,1636140268.211399,,,,,,,,,,303.5698490142822,None,,,,,,,,,,,,,,,,,,,,,,,,,,,,,,,,,,,,,,,,,,301.4946389198303,None,302.4841568470001,None,1,1,0.9467480182647705,302.4841568470001,None,8006,001,05,2021_Nov_05_1419,task-switching-replication,2021.2.3,59.999542239820556,
1,21,experiment,05,standing,switch,congruant,solid,triangle,blue,stimuli/solid-rectangle.png,stimuli/blue-triangle.png,1,,,,,,,,,,,,,,,,,,,,,,,,,0,0,0,0,0,0,0,0,0,20,20,20,,,,,,,,,,,,,,,,,,,,,,,,,,,,,,,,,,,,,,,,,,,,,,,,,,,,,,,,,,,,,,,1636140270.2797675,,,,,,,,,,305.6382989883423,None,,,,,,,,,,,,,,,,,,,,,,,,,,,,,,,,,,,,,,,,,,303.7992379665375,None,304.78934693336487,None,1,1,0.7374870777130127,304.78934693336487,None,8006,001,05,2021_Nov_05_1419,task-switching-replication,2021.2.3,59.999542239820556,
1,22,experiment,05,standing,noswitch,congruant,solid,triangle,yellow,stimuli/solid-rectangle.png,stimuli/yellow-triangle.png,1,,,,,,,,,,,,,,,,,,,,,,,,,0,0,0,0,0,0,0,0,0,21,21,21,,,,,,,,,,,,,,,,,,,,,,,,,,,,,,,,,,,,,,,,,,,,,,,,,,,,,,,,,,,,,,,1636140272.0494764,,,,,,,,,,307.40792298316956,None,,,,,,,,,,,,,,,,,,,,,,,,,,,,,,,,,,,,,,,,,,305.8651509284973,None,306.85521697998047,None,1,1,0.42079687118530273,306.85521697998047,None,8006,001,05,2021_Nov_05_1419,task-switching-replication,2021.2.3,59.999542239820556,
1,23,experiment,05,standing,noswitch,congruant,solid,triangle,yellow,stimuli/solid-rectangle.png,stimuli/yellow-triangle.png,1,,,,,,,,,,,,,,,,,,,,,,,,,0,0,0,0,0,0,0,0,0,22,22,22,,,,,,,,,,,,,,,,,,,,,,,,,,,,,,,,,,,,,,,,,,,,,,,,,,,,,,,,,,,,,,,1636140273.7014673,,,,,,,,,,309.0598428249359,None,,,,,,,,,,,,,,,,,,,,,,,,,,,,,,,,,,,,,,,,,,307.6368839740753,None,308.62604904174805,None,1,1,0.30279111862182617,308.62604904174805,None,8006,001,05,2021_Nov_05_1419,task-switching-replication,2021.2.3,59.999542239820556,
1,24,experiment,05,standing,noswitch,incongruant,solid,square,blue,stimuli/solid-rectangle.png,stimuli/blue-square.png,2,,,,,,,,,,,,,,,,,,,,,,,,,0,0,0,0,0,0,0,0,0,23,23,23,,,,,,,,,,,,,,,,,,,,,,,,,,,,,,,,,,,,,,,,,,,,,,,,,,,,,,,,,,,,,,,1636140275.5339587,,,,,,,,,,310.89164304733276,None,,,,,,,,,,,,,,,,,,,,,,,,,,,,,,,,,,,,,,,,,,309.2887878417969,None,310.2787539958954,None,2,1,0.46456193923950195,310.2787539958954,None,8006,001,05,2021_Nov_05_1419,task-switching-replication,2021.2.3,59.999542239820556,
1,25,experiment,05,standing,switch,incongruant,dashed,square,blue,stimuli/dashed-rectangle.png,stimuli/blue-square.png,1,,,,,,,,,,,,,,,,,,,,,,,,,0,0,0,0,0,0,0,0,0,24,24,24,,,,,,,,,,,,,,,,,,,,,,,,,,,,,,,,,,,,,,,,,,,,,,,,,,,,,,,,,,,,,,,1636140277.7817907,,,,,,,,,,313.1394250392914,None,,,,,,,,,,,,,,,,,,,,,,,,,,,,,,,,,,,,,,,,,,311.1211178302765,None,312.1104009151459,None,1,1,0.8654859066009521,312.1104009151459,None,8006,001,05,2021_Nov_05_1419,task-switching-replication,2021.2.3,59.999542239820556,
1,26,experiment,05,standing,noswitch,congruant,dashed,triangle,blue,stimuli/dashed-rectangle.png,stimuli/blue-triangle.png,1,,,,,,,,,,,,,,,,,,,,,,,,,0,0,0,0,0,0,0,0,0,25,25,25,,,,,,,,,,,,,,,,,,,,,,,,,,,,,,,,,,,,,,,,,,,,,,,,,,,,,,,,,,,,,,,1636140279.8486707,,,,,,,,,,315.207396030426,None,,,,,,,,,,,,,,,,,,,,,,,,,,,,,,,,,,,,,,,,,,313.36900997161865,None,314.35838985443115,None,1,1,0.747434139251709,314.35838985443115,None,8006,001,05,2021_Nov_05_1419,task-switching-replication,2021.2.3,59.999542239820556,
1,27,experiment,05,standing,noswitch,congruant,dashed,triangle,blue,stimuli/dashed-rectangle.png,stimuli/blue-triangle.png,1,,,,,,,,,,,,,,,,,,,,,,,,,0,0,0,0,0,0,0,0,0,26,26,26,,,,,,,,,,,,,,,,,,,,,,,,,,,,,,,,,,,,,,,,,,,,,,,,,,,,,,,,,,,,,,,1636140281.5620973,,,,,,,,,,316.9204339981079,None,,,,,,,,,,,,,,,,,,,,,,,,,,,,,,,,,,,,,,,,,,315.43782782554626,None,316.4273798465729,None,1,1,0.34047508239746094,316.4273798465729,None,8006,001,05,2021_Nov_05_1419,task-switching-replication,2021.2.3,59.999542239820556,
1,28,experiment,05,standing,switch,incongruant,solid,square,blue,stimuli/solid-rectangle.png,stimuli/blue-square.png,2,,,,,,,,,,,,,,,,,,,,,,,,,0,0,0,0,0,0,0,0,0,27,27,27,,,,,,,,,,,,,,,,,,,,,,,,,,,,,,,,,,,,,,,,,,,,,,,,,,,,,,,,,,,,,,,1636140283.5109782,,,,,,,,,,318.8692309856415,None,,,,,,,,,,,,,,,,,,,,,,,,,,,,,,,,,,,,,,,,,,317.14966797828674,None,318.13918685913086,None,2,1,0.6292619705200195,318.13918685913086,None,8006,001,05,2021_Nov_05_1419,task-switching-replication,2021.2.3,59.999542239820556,
1,29,experiment,05,standing,switch,incongruant,dashed,triangle,blue,stimuli/dashed-rectangle.png,stimuli/blue-triangle.png,1,,,,,,,,,,,,,,,,,,,,,,,,,0,0,0,0,0,0,0,0,0,28,28,28,,,,,,,,,,,,,,,,,,,,,,,,,,,,,,,,,,,,,,,,,,,,,,,,,,,,,,,,,,,,,,,1636140285.521274,,,,,,,,,,320.87895703315735,None,,,,,,,,,,,,,,,,,,,,,,,,,,,,,,,,,,,,,,,,,,319.098345041275,None,320.0884039402008,None,1,1,0.6567020416259766,320.0884039402008,None,8006,001,05,2021_Nov_05_1419,task-switching-replication,2021.2.3,59.999542239820556,
1,30,experiment,05,standing,noswitch,incongruant,dashed,triangle,yellow,stimuli/dashed-rectangle.png,stimuli/yellow-triangle.png,2,,,,,,,,,,,,,,,,,,,,,,,,,0,0,0,0,0,0,0,0,0,29,29,29,,,,,,,,,,,,,,,,,,,,,,,,,,,,,,,,,,,,,,,,,,,,,,,,,,,,,,,,,,,,,,,1636140287.2943046,,,,,,,,,,322.65209197998047,None,,,,,,,,,,,,,,,,,,,,,,,,,,,,,,,,,,,,,,,,,,321.107843875885,None,322.09717297554016,None,2,1,0.42577505111694336,322.09717297554016,None,8006,001,05,2021_Nov_05_1419,task-switching-replication,2021.2.3,59.999542239820556,
1,31,experiment,05,standing,noswitch,congruant,dashed,triangle,yellow,stimuli/dashed-rectangle.png,stimuli/yellow-triangle.png,2,,,,,,,,,,,,,,,,,,,,,,,,,0,0,0,0,0,0,0,0,0,30,30,30,,,,,,,,,,,,,,,,,,,,,,,,,,,,,,,,,,,,,,,,,,,,,,,,,,,,,,,,,,,,,,,1636140288.9469025,,,,,,,,,,324.3054358959198,None,,,,,,,,,,,,,,,,,,,,,,,,,,,,,,,,,,,,,,,,,,322.8811309337616,None,323.8713409900665,None,2,1,0.28156304359436035,323.8713409900665,None,8006,001,05,2021_Nov_05_1419,task-switching-replication,2021.2.3,59.999542239820556,
1,32,experiment,05,standing,noswitch,congruant,dashed,triangle,yellow,stimuli/dashed-rectangle.png,stimuli/yellow-triangle.png,2,,,,,,,,,,,,,,,,,,,,,,,,,0,0,0,0,0,0,0,0,0,31,31,31,,,,,,,,,,,,,,,,,,,,,,,,,,,,,,,,,,,,,,,,,,,,,,,,,,,,,,,,,,,,,,,1636140290.5995958,,,,,,,,,,325.958144903183,None,,,,,,,,,,,,,,,,,,,,,,,,,,,,,,,,,,,,,,,,,,324.5347728729248,None,325.52426505088806,None,2,1,0.31768321990966797,325.52426505088806,None,8006,001,05,2021_Nov_05_1419,task-switching-replication,2021.2.3,59.999542239820556,
1,33,experiment,05,standing,switch,congruant,solid,square,yellow,stimuli/solid-rectangle.png,stimuli/yellow-square.png,2,,,,,,,,,,,,,,,,,,,,,,,,,0,0,0,0,0,0,0,0,0,32,32,32,,,,,,,,,,,,,,,,,,,,,,,,,,,,,,,,,,,,,,,,,,,,,,,,,,,,,,,,,,,,,,,1636140292.3128588,,,,,,,,,,327.6714470386505,None,,,,,,,,,,,,,,,,,,,,,,,,,,,,,,,,,,,,,,,,,,326.18766498565674,None,327.1781749725342,None,2,1,0.3761439323425293,327.1781749725342,None,8006,001,05,2021_Nov_05_1419,task-switching-replication,2021.2.3,59.999542239820556,
1,34,experiment,05,standing,switch,incongruant,dashed,square,blue,stimuli/dashed-rectangle.png,stimuli/blue-square.png,1,,,,,,,,,,,,,,,,,,,,,,,,,0,0,0,0,0,0,0,0,0,33,33,33,,,,,,,,,,,,,,,,,,,,,,,,,,,,,,,,,,,,,,,,,,,,,,,,,,,,,,,,,,,,,,,1636140294.5010738,,,,,,,,,,329.8597319126129,None,,,,,,,,,,,,,,,,,,,,,,,,,,,,,,,,,,,,,,,,,,327.9016628265381,None,328.89237999916077,None,1,1,0.8557529449462891,328.89237999916077,None,8006,001,05,2021_Nov_05_1419,task-switching-replication,2021.2.3,59.999542239820556,
1,35,experiment,05,standing,noswitch,incongruant,dashed,triangle,yellow,stimuli/dashed-rectangle.png,stimuli/yellow-triangle.png,2,,,,,,,,,,,,,,,,,,,,,,,,,0,0,0,0,0,0,0,0,0,34,34,34,,,,,,,,,,,,,,,,,,,,,,,,,,,,,,,,,,,,,,,,,,,,,,,,,,,,,,,,,,,,,,,1636140296.5109723,,,,,,,,,,331.86850690841675,None,,,,,,,,,,,,,,,,,,,,,,,,,,,,,,,,,,,,,,,,,,330.0887930393219,None,331.07847690582275,None,2,1,0.6659691333770752,331.07847690582275,None,8006,001,05,2021_Nov_05_1419,task-switching-replication,2021.2.3,59.999542239820556,
1,36,experiment,05,standing,switch,congruant,solid,square,yellow,stimuli/solid-rectangle.png,stimuli/yellow-square.png,2,,,,,,,,,,,,,,,,,,,,,,,,,0,0,0,0,0,0,0,0,0,35,35,35,,,,,,,,,,,,,,,,,,,,,,,,,,,,,,,,,,,,,,,,,,,,,,,,,,,,,,,,,,,,,,,1636140298.3415864,,,,,,,,,,333.70006489753723,None,,,,,,,,,,,,,,,,,,,,,,,,,,,,,,,,,,,,,,,,,,332.0988099575043,None,333.08839201927185,None,2,1,0.5075838565826416,333.08839201927185,None,8006,001,05,2021_Nov_05_1419,task-switching-replication,2021.2.3,59.999542239820556,
1,37,experiment,05,standing,noswitch,incongruant,solid,triangle,blue,stimuli/solid-rectangle.png,stimuli/blue-triangle.png,1,,,,,,,,,,,,,,,,,,,,,,,,,0,0,0,0,0,0,0,0,0,36,36,36,,,,,,,,,,,,,,,,,,,,,,,,,,,,,,,,,,,,,,,,,,,,,,,,,,,,,,,,,,,,,,,1636140300.41238,,,,,,,,,,335.7701029777527,None,,,,,,,,,,,,,,,,,,,,,,,,,,,,,,,,,,,,,,,,,,333.9293999671936,None,334.9193208217621,None,1,1,0.6923470497131348,334.9193208217621,None,8006,001,05,2021_Nov_05_1419,task-switching-replication,2021.2.3,59.999542239820556,
1,38,experiment,05,standing,switch,incongruant,dashed,square,yellow,stimuli/dashed-rectangle.png,stimuli/yellow-square.png,2,,,,,,,,,,,,,,,,,,,,,,,,,0,0,0,0,0,0,0,0,0,37,37,37,,,,,0,0,0,0,,,,,,,,,,,,,,,,,,,,,,,,,,,,,,,,,,,,,,,,,,,,,,,,,,,,,,,1636140303.1319664,,,,,,,,,,,,,,,,,,,,,,,,,,,,,,,,,,,,,338.4713474273682,339.5224618911743,338.50287199020386,None,,,,,,,,,,,,,335.99965596199036,None,336.9902808666229,None,None,0,,336.9902808666229,None,8006,001,05,2021_Nov_05_1419,task-switching-replication,2021.2.3,59.999542239820556,
1,38,experiment,05,standing,switch,incongruant,dashed,square,yellow,stimuli/dashed-rectangle.png,stimuli/yellow-square.png,2,,,,,,,,,,,,,,,,,,,,,,,,,0,0,0,0,0,0,0,0,0,37,37,37,,,,,,,,,,,,,,,,,,,,,,,,,,,,,,,,,,,,,,,,,,,,,,,,,,,,,,,,,,,,,,,,,,,,,,,,,343.53037881851196,None,,,,,,,,,,,,,,,,,,,,,,,,,,,,,,,,,,,,,,,,,,,,,,,,,,,8006,001,05,2021_Nov_05_1419,task-switching-replication,2021.2.3,59.999542239820556,
1,39,experiment,05,standing,switch,incongruant,solid,triangle,blue,stimuli/solid-rectangle.png,stimuli/blue-triangle.png,1,,,,,,,,,,,,,,,,,,,,,,,,,0,0,0,0,0,0,0,0,0,38,38,38,0,0,0,0,,,,,,,,,,,,,,,,,,,,,,,,,,,,,,,,,,,,,,,,,,,,,,,,,,,,,,,,,,,1636140310.85884,,,,,,,,,,,,346.1983424186707,347.24965500831604,346.22950983047485,None,,,,,,,,,,,,,,,,,,,,,,,,,,,,,,,,,,,,,,343.7274169921875,None,344.7171528339386,None,None,0,,344.7171528339386,None,8006,001,05,2021_Nov_05_1419,task-switching-replication,2021.2.3,59.999542239820556,
1,39,experiment,05,standing,switch,incongruant,solid,triangle,blue,stimuli/solid-rectangle.png,stimuli/blue-triangle.png,1,,,,,,,,,,,,,,,,,,,,,,,,,0,0,0,0,0,0,0,0,0,38,38,38,,,,,,,,,,,,,,,,,,,,,,,,,,,,,,,,,,,,,,,,,,,,,,,,,,,,,,,,,,,,,,,,,,,,,,,,,351.25744795799255,None,,,,,,,,,,,,,,,,,,,,,,,,,,,,,,,,,,,,,,,,,,,,,,,,,,,8006,001,05,2021_Nov_05_1419,task-switching-replication,2021.2.3,59.999542239820556,
1,40,experiment,05,standing,noswitch,incongruant,solid,square,yellow,stimuli/solid-rectangle.png,stimuli/yellow-square.png,2,,,,,,,,,,,,,,,,,,,,,,,,,0,0,0,0,0,0,0,0,0,39,39,39,,,,,,,,,,,,,,,,,,,,,,,,,,,,,,,,,,,,,,,,,,,,,,,,,,,,,,,,,,,,,,,1636140317.755359,,,,,,,,,,353.11288595199585,None,,,,,,,,,,,,,,,,,,,,,,,,,,,,,,,,,,,,,,,,,,351.454372882843,None,352.44294786453247,None,2,1,0.5460591316223145,352.44294786453247,None,8006,001,05,2021_Nov_05_1419,task-switching-replication,2021.2.3,59.999542239820556,
1,41,experiment,05,standing,noswitch,congruant,solid,square,yellow,stimuli/solid-rectangle.png,stimuli/yellow-square.png,2,,,,,,,,,,,,,,,,,,,,,,,,,0,0,0,0,0,0,0,0,0,40,40,40,0,0,0,0,,,,,,,,,,,,,,,,,,,,,,,,,,,,,,,,,,,,,,,,,,,,,,,,,,,,,,,,,,,1636140320.5325987,,,,,,,,,,,,355.87196526527407,356.92354583740234,355.90314197540283,None,,,,,,,,,,,,,,,,,,,,,,,,,,,,,,,,,,,,,,353.34247398376465,None,354.3313808441162,None,None,0,,354.3313808441162,None,8006,001,05,2021_Nov_05_1419,task-switching-replication,2021.2.3,59.999542239820556,
1,41,experiment,05,standing,noswitch,congruant,solid,square,yellow,stimuli/solid-rectangle.png,stimuli/yellow-square.png,2,,,,,,,,,,,,,,,,,,,,,,,,,0,0,0,0,0,0,0,0,0,40,40,40,,,,,,,,,,,,,,,,,,,,,,,,,,,,,,,,,,,,,,,,,,,,,,,,,,,,,,,,,,,,,,,,,,,,,,,,,360.9312949180603,None,,,,,,,,,,,,,,,,,,,,,,,,,,,,,,,,,,,,,,,,,,,,,,,,,,,8006,001,05,2021_Nov_05_1419,task-switching-replication,2021.2.3,59.999542239820556,
1,42,experiment,05,standing,switch,incongruant,dashed,triangle,blue,stimuli/dashed-rectangle.png,stimuli/blue-triangle.png,1,,,,,,,,,,,,,,,,,,,,,,,,,0,0,0,0,0,0,0,0,0,41,41,41,,,,,,,,,,,,,,,,,,,,,,,,,,,,,,,,,,,,,,,,,,,,,,,,,,,,,,,,,,,,,,,1636140327.7274146,,,,,,,,,,363.08537101745605,None,,,,,,,,,,,,,,,,,,,,,,,,,,,,,,,,,,,,,,,,,,361.1282048225403,None,362.1181609630585,None,1,1,0.8280558586120605,362.1181609630585,None,8006,001,05,2021_Nov_05_1419,task-switching-replication,2021.2.3,59.999542239820556,
1,43,experiment,05,standing,noswitch,incongruant,dashed,square,yellow,stimuli/dashed-rectangle.png,stimuli/yellow-square.png,2,,,,,,,,,,,,,,,,,,,,,,,,,0,0,0,0,0,0,0,0,0,42,42,42,,,,,,,,,,,,,,,,,,,,,,,,,,,,,,,,,,,,,,,,,,,,,,,,,,,,,,,,,,,,,,,1636140329.499918,,,,,,,,,,364.8577969074249,None,,,,,,,,,,,,,,,,,,,,,,,,,,,,,,,,,,,,,,,,,,363.31482791900635,None,364.3051209449768,None,2,1,0.4185910224914551,364.3051209449768,None,8006,001,05,2021_Nov_05_1419,task-switching-replication,2021.2.3,59.999542239820556,
1,44,experiment,05,standing,switch,congruant,solid,square,yellow,stimuli/solid-rectangle.png,stimuli/yellow-square.png,2,,,,,,,,,,,,,,,,,,,,,,,,,0,0,0,0,0,0,0,0,0,43,43,43,,,,,,,,,,,,,,,,,,,,,,,,,,,,,,,,,,,,,,,,,,,,,,,,,,,,,,,,,,,,,,,1636140331.3896875,,,,,,,,,,366.748055934906,None,,,,,,,,,,,,,,,,,,,,,,,,,,,,,,,,,,,,,,,,,,365.08760690689087,None,366.0771219730377,None,2,1,0.5315449237823486,366.0771219730377,None,8006,001,05,2021_Nov_05_1419,task-switching-replication,2021.2.3,59.999542239820556,
1,45,experiment,05,standing,noswitch,incongruant,solid,triangle,blue,stimuli/solid-rectangle.png,stimuli/blue-triangle.png,1,,,,,,,,,,,,,,,,,,,,,,,,,0,0,0,0,0,0,0,0,0,44,44,44,,,,,,,,,,,,,,,,,,,,,,,,,,,,,,,,,,,,,,,,,,,,,,,,,,,,,,,,,,,,,,,1636140333.2208483,,,,,,,,,,368.57885003089905,None,,,,,,,,,,,,,,,,,,,,,,,,,,,,,,,,,,,,,,,,,,366.97728204727173,None,367.9670879840851,None,1,1,0.4777030944824219,367.9670879840851,None,8006,001,05,2021_Nov_05_1419,task-switching-replication,2021.2.3,59.999542239820556,
1,46,experiment,05,standing,switch,congruant,dashed,square,blue,stimuli/dashed-rectangle.png,stimuli/blue-square.png,1,,,,,,,,,,,,,,,,,,,,,,,,,0,0,0,0,0,0,0,0,0,45,45,45,,,,,,,,,,,,,,,,,,,,,,,,,,,,,,,,,,,,,,,,,,,,,,,,,,,,,,,,,,,,,,,1636140335.2295299,,,,,,,,,,370.58793592453003,None,,,,,,,,,,,,,,,,,,,,,,,,,,,,,,,,,,,,,,,,,,368.8081660270691,None,369.7983160018921,None,1,1,0.6583199501037598,369.7983160018921,None,8006,001,05,2021_Nov_05_1419,task-switching-replication,2021.2.3,59.999542239820556,
1,47,experiment,05,standing,switch,congruant,solid,triangle,yellow,stimuli/solid-rectangle.png,stimuli/yellow-triangle.png,1,,,,,,,,,,,,,,,,,,,,,,,,,0,0,0,0,0,0,0,0,0,46,46,46,,,,,,,,,,,,,,,,,,,,,,,,,,,,,,,,,,,,,,,,,,,,,,,,,,,,,,,,,,,,,,,1636140337.1777422,,,,,,,,,,372.5361659526825,None,,,,,,,,,,,,,,,,,,,,,,,,,,,,,,,,,,,,,,,,,,370.8169729709625,None,371.8061430454254,None,1,1,0.6223351955413818,371.8061430454254,None,8006,001,05,2021_Nov_05_1419,task-switching-replication,2021.2.3,59.999542239820556,
1,48,experiment,05,standing,noswitch,congruant,solid,triangle,yellow,stimuli/solid-rectangle.png,stimuli/yellow-triangle.png,1,,,,,,,,,,,,,,,,,,,,,,,,,0,0,0,0,0,0,0,0,0,47,47,47,,,,,,,,,,,,,,,,,,,,,,,,,,,,,,,,,,,,,,,,,,,,,,,,,,,,,,,,,,,,,,,1636140338.9492235,,,,,,,,,,374.30767583847046,None,,,,,,,,,,,,,,,,,,,,,,,,,,,,,,,,,,,,,,,,,,372.7652349472046,None,373.7551300525665,None,1,1,0.42345499992370605,373.7551300525665,None,8006,001,05,2021_Nov_05_1419,task-switching-replication,2021.2.3,59.999542239820556,
1,49,experiment,05,standing,noswitch,congruant,solid,triangle,yellow,stimuli/solid-rectangle.png,stimuli/yellow-triangle.png,1,,,,,,,,,,,,,,,,,,,,,,,,,0,0,0,0,0,0,0,0,0,48,48,48,,,,,,,,,,,,,,,,,,,,,,,,,,,,,,,,,,,,,,,,,,,,,,,,,,,,,,,,,,,,,,,1636140340.6612074,,,,,,,,,,376.01963996887207,None,,,,,,,,,,,,,,,,,,,,,,,,,,,,,,,,,,,,,,,,,,374.5367410182953,None,375.52635383605957,None,1,1,0.34313392639160156,375.52635383605957,None,8006,001,05,2021_Nov_05_1419,task-switching-replication,2021.2.3,59.999542239820556,
,,,05,,,,,,,,,,,,,,,,,,,,,,,,,,,,,,,,,,0,0,0,0,0,0,0,0,,,,,,,,,,,,,,,,,,,,,,,,,,,,,,,,,,,,,,,,,,,,,,,,,,,,,,,,,,,,,,,,,,,,,,,,,,,,,,,,,,,,,,,,,,,,,,,,,,,,,,,,,,,,,,,,,,,,,,,,,,,,,,,,,8006,001,05,2021_Nov_05_1419,task-switching-replication,2021.2.3,59.999542239820556,
2,1,experiment,05,standing,buffer,buffer,solid,triangle,yellow,stimuli/solid-rectangle.png,stimuli/yellow-triangle.png,1,,,,,,,,,,,,,,,,,,,,,,,,,0,0,0,0,1,0,1,0,0,0,0,0,0,0,0,0,,,,,,,,,,,,,,,,,,,,,,,,,,,,,,,,,,,,,,,,,,,,,,,,,,,,,,,,,,,1636140368.6592917,,,,,,,,,,,,404.00264225006106,405.0552990436554,404.03386092185974,None,,,,,,,,,,,,,,,,,,,,,,,,,,376.2494149208069,None,1,5.882143974304199,376.2494149208069,None,382.2758798599243,None,1,19.039503812789917,382.2758798599243,None,401.4678108692169,None,402.45768690109253,None,None,0,,402.45768690109253,None,8006,001,05,2021_Nov_05_1419,task-switching-replication,2021.2.3,59.999542239820556,
2,1,experiment,05,standing,buffer,buffer,solid,triangle,yellow,stimuli/solid-rectangle.png,stimuli/yellow-triangle.png,1,,,,,,,,,,,,,,,,,,,,,,,,,0,0,0,0,1,0,1,0,0,0,0,0,,,,,,,,,,,,,,,,,,,,,,,,,,,,,,,,,,,,,,,,,,,,,,,,,,,,,,,,,,,,,,,,,,,,,,,,,409.0317850112915,None,,,,,,,,,,,,,,,,,,,,,,,,,,,,,,,,,,,,,,,,,,,,,,,,,,,8006,001,05,2021_Nov_05_1419,task-switching-replication,2021.2.3,59.999542239820556,
2,2,experiment,05,standing,switch,incongruant,dashed,triangle,yellow,stimuli/dashed-rectangle.png,stimuli/yellow-triangle.png,2,,,,,,,,,,,,,,,,,,,,,,,,,0,0,0,0,1,0,1,0,0,1,1,1,,,,,,,,,,,,,,,,,,,,,,,,,,,,,,,,,,,,,,,,,,,,,,,,,,,,,,,,,,,,,,,1636140375.5632741,,,,,,,,,,410.92209005355835,None,,,,,,,,,,,,,,,,,,,,,,,,,,,,,,,,,,,,,,,,,,409.26127099990845,None,410.25060987472534,None,2,1,0.5709869861602783,410.25060987472534,None,8006,001,05,2021_Nov_05_1419,task-switching-replication,2021.2.3,59.999542239820556,
2,3,experiment,05,standing,noswitch,congruant,dashed,square,yellow,stimuli/dashed-rectangle.png,stimuli/yellow-square.png,2,,,,,,,,,,,,,,,,,,,,,,,,,0,0,0,0,1,0,1,0,0,2,2,2,,,,,,,,,,,,,,,,,,,,,,,,,,,,,,,,,,,,,,,,,,,,,,,,,,,,,,,,,,,,,,,1636140377.2765794,,,,,,,,,,412.6351809501648,None,,,,,,,,,,,,,,,,,,,,,,,,,,,,,,,,,,,,,,,,,,411.1520049571991,None,412.14187693595886,None,2,1,0.38252806663513184,412.14187693595886,None,8006,001,05,2021_Nov_05_1419,task-switching-replication,2021.2.3,59.999542239820556,
2,4,experiment,05,standing,noswitch,congruant,dashed,triangle,yellow,stimuli/dashed-rectangle.png,stimuli/yellow-triangle.png,2,,,,,,,,,,,,,,,,,,,,,,,,,0,0,0,0,1,0,1,0,0,3,3,3,,,,,,,,,,,,,,,,,,,,,,,,,,,,,,,,,,,,,,,,,,,,,,,,,,,,,,,,,,,,,,,1636140379.107351,,,,,,,,,,414.4656808376312,None,,,,,,,,,,,,,,,,,,,,,,,,,,,,,,,,,,,,,,,,,,412.86423897743225,None,413.8539810180664,None,2,1,0.48943185806274414,413.8539810180664,None,8006,001,05,2021_Nov_05_1419,task-switching-replication,2021.2.3,59.999542239820556,
2,5,experiment,05,standing,switch,congruant,solid,square,blue,stimuli/solid-rectangle.png,stimuli/blue-square.png,2,,,,,,,,,,,,,,,,,,,,,,,,,0,0,0,0,1,0,1,0,0,4,4,4,,,,,,,,,,,,,,,,,,,,,,,,,,,,,,,,,,,,,,,,,,,,,,,,,,,,,,,,,,,,,,,1636140381.6482658,,,,,,,,,,417.00674200057983,None,,,,,,,,,,,,,,,,,,,,,,,,,,,,,,,,,,,,,,,,,,414.694974899292,None,415.6842360496521,None,2,1,1.1941680908203125,415.6842360496521,None,8006,001,05,2021_Nov_05_1419,task-switching-replication,2021.2.3,59.999542239820556,
2,6,experiment,05,standing,switch,incongruant,dashed,square,blue,stimuli/dashed-rectangle.png,stimuli/blue-square.png,1,,,,,,,,,,,,,,,,,,,,,,,,,0,0,0,0,1,0,1,0,0,5,5,5,,,,,,,,,,,,,,,,,,,,,,,,,,,,,,,,,,,,,,,,,,,,,,,,,,,,,,,,,,,,,,,1636140383.9573555,,,,,,,,,,419.3151099681854,None,,,,,,,,,,,,,,,,,,,,,,,,,,,,,,,,,,,,,,,,,,417.2360119819641,None,418.2264928817749,None,1,1,0.934622049331665,418.2264928817749,None,8006,001,05,2021_Nov_05_1419,task-switching-replication,2021.2.3,59.999542239820556,
2,7,experiment,05,standing,switch,incongruant,solid,square,blue,stimuli/solid-rectangle.png,stimuli/blue-square.png,2,,,,,,,,,,,,,,,,,,,,,,,,,0,0,0,0,1,0,1,0,0,6,6,6,,,,,,,,,,,,,,,,,,,,,,,,,,,,,,,,,,,,,,,,,,,,,,,,,,,,,,,,,,,,,,,1636140385.8503995,,,,,,,,,,421.20810198783875,None,,,,,,,,,,,,,,,,,,,,,,,,,,,,,,,,,,,,,,,,,,419.54474902153015,None,420.53474402427673,None,2,1,0.514671802520752,420.53474402427673,None,8006,001,05,2021_Nov_05_1419,task-switching-replication,2021.2.3,59.999542239820556,
2,8,experiment,05,standing,noswitch,incongruant,solid,triangle,blue,stimuli/solid-rectangle.png,stimuli/blue-triangle.png,1,,,,,,,,,,,,,,,,,,,,,,,,,0,0,0,0,1,0,1,0,0,7,7,7,,,,,,,,,,,,,,,,,,,,,,,,,,,,,,,,,,,,,,,,,,,,,,,,,,,,,,,,,,,,,,,1636140387.686218,,,,,,,,,,423.0441699028015,None,,,,,,,,,,,,,,,,,,,,,,,,,,,,,,,,,,,,,,,,,,421.43764996528625,None,422.4285259246826,None,1,1,0.47676515579223633,422.4285259246826,None,8006,001,05,2021_Nov_05_1419,task-switching-replication,2021.2.3,59.999542239820556,
2,9,experiment,05,standing,switch,incongruant,dashed,triangle,yellow,stimuli/dashed-rectangle.png,stimuli/yellow-triangle.png,2,,,,,,,,,,,,,,,,,,,,,,,,,0,0,0,0,1,0,1,0,0,8,8,8,,,,,0,0,0,0,,,,,,,,,,,,,,,,,,,,,,,,,,,,,,,,,,,,,,,,,,,,,,,,,,,,,,,1636140389.696171,,,,,,,,,,,,,,,,,,,,,,,,,,,,,,,,,,,,,425.02628695964813,426.044499874115,425.05980491638184,None,,,,,,,,,,,,,423.2733769416809,None,424.26493883132935,None,1,0,0.6573550701141357,424.26493883132935,None,8006,001,05,2021_Nov_05_1419,task-switching-replication,2021.2.3,59.999542239820556,
2,9,experiment,05,standing,switch,incongruant,dashed,triangle,yellow,stimuli/dashed-rectangle.png,stimuli/yellow-triangle.png,2,,,,,,,,,,,,,,,,,,,,,,,,,0,0,0,0,1,0,1,0,0,8,8,8,,,,,,,,,,,,,,,,,,,,,,,,,,,,,,,,,,,,,,,,,,,,,,,,,,,,,,,,,,,,,,,,,,,,,,,,,430.05827593803406,None,,,,,,,,,,,,,,,,,,,,,,,,,,,,,,,,,,,,,,,,,,,,,,,,,,,8006,001,05,2021_Nov_05_1419,task-switching-replication,2021.2.3,59.999542239820556,
2,10,experiment,05,standing,noswitch,incongruant,dashed,square,blue,stimuli/dashed-rectangle.png,stimuli/blue-square.png,1,,,,,,,,,,,,,,,,,,,,,,,,,0,0,0,0,1,0,1,0,0,9,9,9,,,,,,,,,,,,,,,,,,,,,,,,,,,,,,,,,,,,,,,,,,,,,,,,,,,,,,,,,,,,,,,1636140396.5305548,,,,,,,,,,431.8890678882599,None,,,,,,,,,,,,,,,,,,,,,,,,,,,,,,,,,,,,,,,,,,430.2877948284149,None,431.2768659591675,None,1,1,0.4883298873901367,431.2768659591675,None,8006,001,05,2021_Nov_05_1419,task-switching-replication,2021.2.3,59.999542239820556,
2,11,experiment,05,standing,noswitch,incongruant,dashed,triangle,yellow,stimuli/dashed-rectangle.png,stimuli/yellow-triangle.png,2,,,,,,,,,,,,,,,,,,,,,,,,,0,0,0,0,1,0,1,0,0,10,10,10,,,,,,,,,,,,,,,,,,,,,,,,,,,,,,,,,,,,,,,,,,,,,,,,,,,,,,,,,,,,,,,1636140398.5434065,,,,,,,,,,433.90128898620605,None,,,,,,,,,,,,,,,,,,,,,,,,,,,,,,,,,,,,,,,,,,432.11805987358093,None,433.10741782188416,None,2,1,0.6649870872497559,433.10741782188416,None,8006,001,05,2021_Nov_05_1419,task-switching-replication,2021.2.3,59.999542239820556,
2,12,experiment,05,standing,switch,congruant,solid,square,blue,stimuli/solid-rectangle.png,stimuli/blue-square.png,2,,,,,,,,,,,,,,,,,,,,,,,,,0,0,0,0,1,0,1,0,0,11,11,11,,,,,,,,,,,,,,,,,,,,,,,,,,,,,,,,,,,,,,,,,,,,,,,,,,,,,,,,,,,,,,,1636140401.0843809,,,,,,,,,,436.4428029060364,None,,,,,,,,,,,,,,,,,,,,,,,,,,,,,,,,,,,,,,,,,,434.1308310031891,None,435.1204078197479,None,2,1,1.191878080368042,435.1204078197479,None,8006,001,05,2021_Nov_05_1419,task-switching-replication,2021.2.3,59.999542239820556,
2,13,experiment,05,standing,switch,congruant,dashed,square,yellow,stimuli/dashed-rectangle.png,stimuli/yellow-square.png,2,,,,,,,,,,,,,,,,,,,,,,,,,0,0,0,0,1,0,1,0,0,12,12,12,,,,,,,,,,,,,,,,,,,,,,,,,,,,,,,,,,,,,,,,,,,,,,,,,,,,,,,,,,,,,,,1636140403.2108474,,,,,,,,,,438.5693619251251,None,,,,,,,,,,,,,,,,,,,,,,,,,,,,,,,,,,,,,,,,,,436.67243099212646,None,437.66123390197754,None,2,1,0.7790489196777344,437.66123390197754,None,8006,001,05,2021_Nov_05_1419,task-switching-replication,2021.2.3,59.999542239820556,
2,14,experiment,05,standing,noswitch,congruant,dashed,square,yellow,stimuli/dashed-rectangle.png,stimuli/yellow-square.png,2,,,,,,,,,,,,,,,,,,,,,,,,,0,0,0,0,1,0,1,0,0,13,13,13,,,,,,,,,,,,,,,,,,,,,,,,,,,,,,,,,,,,,,,,,,,,,,,,,,,,,,,,,,,,,,,1636140405.517812,,,,,,,,,,440.87616086006165,None,,,,,,,,,,,,,,,,,,,,,,,,,,,,,,,,,,,,,,,,,,438.79993987083435,None,439.7903139591217,None,2,1,0.9359800815582275,439.7903139591217,None,8006,001,05,2021_Nov_05_1419,task-switching-replication,2021.2.3,59.999542239820556,
2,15,experiment,05,standing,switch,incongruant,solid,triangle,blue,stimuli/solid-rectangle.png,stimuli/blue-triangle.png,1,,,,,,,,,,,,,,,,,,,,,,,,,0,0,0,0,1,0,1,0,0,14,14,14,,,,,,,,,,,,,,,,,,,,,,,,,,,,,,,,,,,,,,,,,,,,,,,,,,,,,,,,,,,,,,,1636140407.5282183,,,,,,,,,,442.88605189323425,None,,,,,,,,,,,,,,,,,,,,,,,,,,,,,,,,,,,,,,,,,,441.10535502433777,None,442.09582781791687,None,1,1,0.6608397960662842,442.09582781791687,None,8006,001,05,2021_Nov_05_1419,task-switching-replication,2021.2.3,59.999542239820556,
2,16,experiment,05,standing,switch,congruant,dashed,square,blue,stimuli/dashed-rectangle.png,stimuli/blue-square.png,1,,,,,,,,,,,,,,,,,,,,,,,,,0,0,0,0,1,0,1,0,0,15,15,15,,,,,,,,,,,,,,,,,,,,,,,,,,,,,,,,,,,,,,,,,,,,,,,,,,,,,,,,,,,,,,,1636140410.2479737,,,,,,,,,,445.60649490356445,None,,,,,,,,,,,,,,,,,,,,,,,,,,,,,,,,,,,,,,,,,,443.1155939102173,None,444.10574197769165,None,1,1,1.3845100402832031,444.10574197769165,None,8006,001,05,2021_Nov_05_1419,task-switching-replication,2021.2.3,59.999542239820556,
2,17,experiment,05,standing,noswitch,incongruant,dashed,square,yellow,stimuli/dashed-rectangle.png,stimuli/yellow-square.png,2,,,,,,,,,,,,,,,,,,,,,,,,,0,0,0,0,1,0,1,0,0,16,16,16,,,,,0,0,0,0,,,,,,,,,,,,,,,,,,,,,,,,,,,,,,,,,,,,,,,,,,,,,,,,,,,,,,,1636140412.968117,,,,,,,,,,,,,,,,,,,,,,,,,,,,,,,,,,,,,448.30749640464785,449.3587188720703,448.33908700942993,None,,,,,,,,,,,,,445.83626890182495,None,446.8262279033661,None,None,0,,446.8262279033661,None,8006,001,05,2021_Nov_05_1419,task-switching-replication,2021.2.3,59.999542239820556,
2,17,experiment,05,standing,noswitch,incongruant,dashed,square,yellow,stimuli/dashed-rectangle.png,stimuli/yellow-square.png,2,,,,,,,,,,,,,,,,,,,,,,,,,0,0,0,0,1,0,1,0,0,16,16,16,,,,,,,,,,,,,,,,,,,,,,,,,,,,,,,,,,,,,,,,,,,,,,,,,,,,,,,,,,,,,,,,,,,,,,,,,453.3655729293823,None,,,,,,,,,,,,,,,,,,,,,,,,,,,,,,,,,,,,,,,,,,,,,,,,,,,8006,001,05,2021_Nov_05_1419,task-switching-replication,2021.2.3,59.999542239820556,
2,18,experiment,05,standing,switch,congruant,solid,square,yellow,stimuli/solid-rectangle.png,stimuli/yellow-square.png,2,,,,,,,,,,,,,,,,,,,,,,,,,0,0,0,0,1,0,1,0,0,17,17,17,,,,,,,,,,,,,,,,,,,,,,,,,,,,,,,,,,,,,,,,,,,,,,,,,,,,,,,,,,,,,,,1636140420.0431564,,,,,,,,,,455.4009938240051,None,,,,,,,,,,,,,,,,,,,,,,,,,,,,,,,,,,,,,,,,,,453.56219696998596,None,454.55126881599426,None,2,1,0.6908681392669678,454.55126881599426,None,8006,001,05,2021_Nov_05_1419,task-switching-replication,2021.2.3,59.999542239820556,
2,19,experiment,05,standing,noswitch,incongruant,solid,triangle,blue,stimuli/solid-rectangle.png,stimuli/blue-triangle.png,1,,,,,,,,,,,,,,,,,,,,,,,,,0,0,0,0,1,0,1,0,0,18,18,18,,,,,,,,,,,,,,,,,,,,,,,,,,,,,,,,,,,,,,,,,,,,,,,,,,,,,,,,,,,,,,,1636140421.8142397,,,,,,,,,,457.1721079349518,None,,,,,,,,,,,,,,,,,,,,,,,,,,,,,,,,,,,,,,,,,,455.63056683540344,None,456.62029004096985,None,1,1,0.38794422149658203,456.62029004096985,None,8006,001,05,2021_Nov_05_1419,task-switching-replication,2021.2.3,59.999542239820556,
2,20,experiment,05,standing,noswitch,congruant,solid,triangle,yellow,stimuli/solid-rectangle.png,stimuli/yellow-triangle.png,1,,,,,,,,,,,,,,,,,,,,,,,,,0,0,0,0,1,0,1,0,0,19,19,19,,,,,,,,,,,,,,,,,,,,,,,,,,,,,,,,,,,,,,,,,,,,,,,,,,,,,,,,,,,,,,,1636140423.6443026,,,,,,,,,,459.00283694267273,None,,,,,,,,,,,,,,,,,,,,,,,,,,,,,,,,,,,,,,,,,,457.4013569355011,None,458.3912479877472,None,1,1,0.49281883239746094,458.3912479877472,None,8006,001,05,2021_Nov_05_1419,task-switching-replication,2021.2.3,59.999542239820556,
2,21,experiment,05,standing,switch,congruant,dashed,square,blue,stimuli/dashed-rectangle.png,stimuli/blue-square.png,1,,,,,,,,,,,,,,,,,,,,,,,,,0,0,0,0,1,0,1,0,0,20,20,20,,,,,,,,,,,,,,,,,,,,,,,,,,,,,,,,,,,,,,,,,,,,,,,,,,,,,,,,,,,,,,,1636140425.4751909,,,,,,,,,,460.8338758945465,None,,,,,,,,,,,,,,,,,,,,,,,,,,,,,,,,,,,,,,,,,,459.2325119972229,None,460.22211384773254,None,1,1,0.5058841705322266,460.22211384773254,None,8006,001,05,2021_Nov_05_1419,task-switching-replication,2021.2.3,59.999542239820556,
2,22,experiment,05,standing,switch,incongruant,solid,square,blue,stimuli/solid-rectangle.png,stimuli/blue-square.png,2,,,,,,,,,,,,,,,,,,,,,,,,,0,0,0,0,1,0,1,0,0,21,21,21,,,,,,,,,,,,,,,,,,,,,,,,,,,,,,,,,,,,,,,,,,,,,,,,,,,,,,,,,,,,,,,1636140427.3658917,,,,,,,,,,462.72351002693176,None,,,,,,,,,,,,,,,,,,,,,,,,,,,,,,,,,,,,,,,,,,461.06383991241455,None,462.05326104164124,None,2,1,0.5462071895599365,462.05326104164124,None,8006,001,05,2021_Nov_05_1419,task-switching-replication,2021.2.3,59.999542239820556,
2,23,experiment,05,standing,switch,incongruant,dashed,triangle,blue,stimuli/dashed-rectangle.png,stimuli/blue-triangle.png,1,,,,,,,,,,,,,,,,,,,,,,,,,0,0,0,0,1,0,1,0,0,22,22,22,,,,,,,,,,,,,,,,,,,,,,,,,,,,,,,,,,,,,,,,,,,,,,,,,,,,,,,,,,,,,,,1636140429.491681,,,,,,,,,,464.85021781921387,None,,,,,,,,,,,,,,,,,,,,,,,,,,,,,,,,,,,,,,,,,,462.95283484458923,None,463.9424579143524,None,1,1,0.7972259521484375,463.9424579143524,None,8006,001,05,2021_Nov_05_1419,task-switching-replication,2021.2.3,59.999542239820556,
2,24,experiment,05,standing,noswitch,congruant,dashed,triangle,blue,stimuli/dashed-rectangle.png,stimuli/blue-triangle.png,1,,,,,,,,,,,,,,,,,,,,,,,,,0,0,0,0,1,0,1,0,0,23,23,23,,,,,,,,,,,,,,,,,,,,,,,,,,,,,,,,,,,,,,,,,,,,,,,,,,,,,,,,,,,,,,,1636140431.2634616,,,,,,,,,,466.62187099456787,None,,,,,,,,,,,,,,,,,,,,,,,,,,,,,,,,,,,,,,,,,,465.07945489883423,None,466.06959104537964,None,1,1,0.39949822425842285,466.06959104537964,None,8006,001,05,2021_Nov_05_1419,task-switching-replication,2021.2.3,59.999542239820556,
2,25,experiment,05,standing,switch,incongruant,solid,square,yellow,stimuli/solid-rectangle.png,stimuli/yellow-square.png,2,,,,,,,,,,,,,,,,,,,,,,,,,0,0,0,0,1,0,1,0,0,24,24,24,,,,,,,,,,,,,,,,,,,,,,,,,,,,,,,,,,,,,,,,,,,,,,,,,,,,,,,,,,,,,,,1636140433.74577,,,,,,,,,,469.1034300327301,None,,,,,,,,,,,,,,,,,,,,,,,,,,,,,,,,,,,,,,,,,,466.8511960506439,None,467.8398628234863,None,2,1,1.125218152999878,467.8398628234863,None,8006,001,05,2021_Nov_05_1419,task-switching-replication,2021.2.3,59.999542239820556,
2,26,experiment,05,standing,switch,congruant,dashed,square,yellow,stimuli/dashed-rectangle.png,stimuli/yellow-square.png,2,,,,,,,,,,,,,,,,,,,,,,,,,0,0,0,0,1,0,1,0,0,25,25,25,,,,,,,,,,,,,,,,,,,,,,,,,,,,,,,,,,,,,,,,,,,,,,,,,,,,,,,,,,,,,,,1636140435.9902256,,,,,,,,,,471.3487038612366,None,,,,,,,,,,,,,,,,,,,,,,,,,,,,,,,,,,,,,,,,,,469.3330318927765,None,470.3227069377899,None,2,1,0.9235539436340332,470.3227069377899,None,8006,001,05,2021_Nov_05_1419,task-switching-replication,2021.2.3,59.999542239820556,
2,27,experiment,05,standing,noswitch,congruant,dashed,square,yellow,stimuli/dashed-rectangle.png,stimuli/yellow-square.png,2,,,,,,,,,,,,,,,,,,,,,,,,,0,0,0,0,1,0,1,0,0,26,26,26,,,,,,,,,,,,,,,,,,,,,,,,,,,,,,,,,,,,,,,,,,,,,,,,,,,,,,,,,,,,,,,1636140437.6429555,,,,,,,,,,473.00145983695984,None,,,,,,,,,,,,,,,,,,,,,,,,,,,,,,,,,,,,,,,,,,471.5779960155487,None,472.5675919055939,None,2,1,0.32202792167663574,472.5675919055939,None,8006,001,05,2021_Nov_05_1419,task-switching-replication,2021.2.3,59.999542239820556,
2,28,experiment,05,standing,switch,incongruant,solid,triangle,yellow,stimuli/solid-rectangle.png,stimuli/yellow-triangle.png,1,,,,,,,,,,,,,,,,,,,,,,,,,0,0,0,0,1,0,1,0,0,27,27,27,,,,,,,,,,,,,,,,,,,,,,,,,,,,,,,,,,,,,,,,,,,,,,,,,,,,,,,,,,,,,,,1636140440.0103426,,,,,,,,,,475.36819100379944,None,,,,,,,,,,,,,,,,,,,,,,,,,,,,,,,,,,,,,,,,,,473.2306818962097,None,474.2209939956665,None,1,1,1.0135200023651123,474.2209939956665,None,8006,001,05,2021_Nov_05_1419,task-switching-replication,2021.2.3,59.999542239820556,
2,29,experiment,05,standing,noswitch,congruant,solid,triangle,yellow,stimuli/solid-rectangle.png,stimuli/yellow-triangle.png,1,,,,,,,,,,,,,,,,,,,,,,,,,0,0,0,0,1,0,1,0,0,28,28,28,,,,,,,,,,,,,,,,,,,,,,,,,,,,,,,,,,,,,,,,,,,,,,,,,,,,,,,,,,,,,,,1636140441.781608,,,,,,,,,,477.1400089263916,None,,,,,,,,,,,,,,,,,,,,,,,,,,,,,,,,,,,,,,,,,,475.59742498397827,None,476.5874388217926,None,1,1,0.4115312099456787,476.5874388217926,None,8006,001,05,2021_Nov_05_1419,task-switching-replication,2021.2.3,59.999542239820556,
2,30,experiment,05,standing,noswitch,incongruant,solid,square,blue,stimuli/solid-rectangle.png,stimuli/blue-square.png,2,,,,,,,,,,,,,,,,,,,,,,,,,0,0,0,0,1,0,1,0,0,29,29,29,,,,,,,,,,,,,,,,,,,,,,,,,,,,,,,,,,,,,,,,,,,,,,,,,,,,,,,,,,,,,,,1636140443.9731832,,,,,,,,,,479.3307399749756,None,,,,,,,,,,,,,,,,,,,,,,,,,,,,,,,,,,,,,,,,,,477.3694050312042,None,478.3593690395355,None,2,1,0.8478977680206299,478.3593690395355,None,8006,001,05,2021_Nov_05_1419,task-switching-replication,2021.2.3,59.999542239820556,
2,31,experiment,05,standing,switch,incongruant,dashed,triangle,blue,stimuli/dashed-rectangle.png,stimuli/blue-triangle.png,1,,,,,,,,,,,,,,,,,,,,,,,,,0,0,0,0,1,0,1,0,0,30,30,30,,,,,0,0,0,0,,,,,,,,,,,,,,,,,,,,,,,,,,,,,,,,,,,,,,,,,,,,,,,,,,,,,,,1636140446.633166,,,,,,,,,,,,,,,,,,,,,,,,,,,,,,,,,,,,,481.9632729291916,482.9821708202362,481.99663496017456,None,,,,,,,,,,,,,479.5606520175934,None,480.55033898353577,None,2,0,1.3178269863128662,480.55033898353577,None,8006,001,05,2021_Nov_05_1419,task-switching-replication,2021.2.3,59.999542239820556,
2,31,experiment,05,standing,switch,incongruant,dashed,triangle,blue,stimuli/dashed-rectangle.png,stimuli/blue-triangle.png,1,,,,,,,,,,,,,,,,,,,,,,,,,0,0,0,0,1,0,1,0,0,30,30,30,,,,,,,,,,,,,,,,,,,,,,,,,,,,,,,,,,,,,,,,,,,,,,,,,,,,,,,,,,,,,,,,,,,,,,,,,486.9926688671112,None,,,,,,,,,,,,,,,,,,,,,,,,,,,,,,,,,,,,,,,,,,,,,,,,,,,8006,001,05,2021_Nov_05_1419,task-switching-replication,2021.2.3,59.999542239820556,
2,32,experiment,05,standing,noswitch,incongruant,dashed,triangle,yellow,stimuli/dashed-rectangle.png,stimuli/yellow-triangle.png,2,,,,,,,,,,,,,,,,,,,,,,,,,0,0,0,0,1,0,1,0,0,31,31,31,,,,,0,0,0,0,,,,,,,,,,,,,,,,,,,,,,,,,,,,,,,,,,,,,,,,,,,,,,,,,,,,,,,1636140454.3546011,,,,,,,,,,,,,,,,,,,,,,,,,,,,,,,,,,,,,489.69400629997256,490.712110042572,489.7254478931427,None,,,,,,,,,,,,,487.221834897995,None,488.2122428417206,None,None,0,,488.2122428417206,None,8006,001,05,2021_Nov_05_1419,task-switching-replication,2021.2.3,59.999542239820556,
2,32,experiment,05,standing,noswitch,incongruant,dashed,triangle,yellow,stimuli/dashed-rectangle.png,stimuli/yellow-triangle.png,2,,,,,,,,,,,,,,,,,,,,,,,,,0,0,0,0,1,0,1,0,0,31,31,31,,,,,,,,,,,,,,,,,,,,,,,,,,,,,,,,,,,,,,,,,,,,,,,,,,,,,,,,,,,,,,,,,,,,,,,,,494.72178983688354,None,,,,,,,,,,,,,,,,,,,,,,,,,,,,,,,,,,,,,,,,,,,,,,,,,,,8006,001,05,2021_Nov_05_1419,task-switching-replication,2021.2.3,59.999542239820556,
2,33,experiment,05,standing,switch,congruant,solid,square,yellow,stimuli/solid-rectangle.png,stimuli/yellow-square.png,2,,,,,,,,,,,,,,,,,,,,,,,,,0,0,0,0,1,0,1,0,0,32,32,32,,,,,,,,,,,,,,,,,,,,,,,,,,,,,,,,,,,,,,,,,,,,,,,,,,,,,,,,,,,,,,,1636140461.135169,,,,,,,,,,496.4934949874878,None,,,,,,,,,,,,,,,,,,,,,,,,,,,,,,,,,,,,,,,,,,494.9512069225311,None,495.94115591049194,None,2,1,0.4308900833129883,495.94115591049194,None,8006,001,05,2021_Nov_05_1419,task-switching-replication,2021.2.3,59.999542239820556,
2,34,experiment,05,standing,noswitch,congruant,solid,square,yellow,stimuli/solid-rectangle.png,stimuli/yellow-square.png,2,,,,,,,,,,,,,,,,,,,,,,,,,0,0,0,0,1,0,1,0,0,33,33,33,,,,,,,,,,,,,,,,,,,,,,,,,,,,,,,,,,,,,,,,,,,,,,,,,,,,,,,,,,,,,,,1636140462.7879734,,,,,,,,,,498.14640402793884,None,,,,,,,,,,,,,,,,,,,,,,,,,,,,,,,,,,,,,,,,,,496.72285890579224,None,497.7126748561859,None,2,1,0.33028101921081543,497.7126748561859,None,8006,001,05,2021_Nov_05_1419,task-switching-replication,2021.2.3,59.999542239820556,
2,35,experiment,05,standing,noswitch,incongruant,solid,triangle,blue,stimuli/solid-rectangle.png,stimuli/blue-triangle.png,1,,,,,,,,,,,,,,,,,,,,,,,,,0,0,0,0,1,0,1,0,0,34,34,34,,,,,,,,,,,,,,,,,,,,,,,,,,,,,,,,,,,,,,,,,,,,,,,,,,,,,,,,,,,,,,,1636140464.6191647,,,,,,,,,,499.97702503204346,None,,,,,,,,,,,,,,,,,,,,,,,,,,,,,,,,,,,,,,,,,,498.3757698535919,None,499.365159034729,None,1,1,0.4579908847808838,499.365159034729,None,8006,001,05,2021_Nov_05_1419,task-switching-replication,2021.2.3,59.999542239820556,
2,36,experiment,05,standing,noswitch,congruant,solid,triangle,yellow,stimuli/solid-rectangle.png,stimuli/yellow-triangle.png,1,,,,,,,,,,,,,,,,,,,,,,,,,0,0,0,0,1,0,1,0,0,35,35,35,,,,,,,,,,,,,,,,,,,,,,,,,,,,,,,,,,,,,,,,,,,,,,,,,,,,,,,,,,,,,,,1636140466.5088885,,,,,,,,,,501.86738204956055,None,,,,,,,,,,,,,,,,,,,,,,,,,,,,,,,,,,,,,,,,,,500.20628595352173,None,501.1963059902191,None,1,1,0.554718017578125,501.1963059902191,None,8006,001,05,2021_Nov_05_1419,task-switching-replication,2021.2.3,59.999542239820556,
2,37,experiment,05,standing,switch,congruant,dashed,square,blue,stimuli/dashed-rectangle.png,stimuli/blue-square.png,1,,,,,,,,,,,,,,,,,,,,,,,,,0,0,0,0,1,0,1,0,0,36,36,36,,,,,0,0,0,0,,,,,,,,,,,,,,,,,,,,,,,,,,,,,,,,,,,,,,,,,,,,,,,,,,,,,,,1636140469.1720855,,,,,,,,,,,,,,,,,,,,,,,,,,,,,,,,,,,,,504.50231087207794,505.520222902298,504.5347390174866,None,,,,,,,,,,,,,502.0967710018158,None,503.0871720314026,None,2,0,1.2840769290924072,503.0871720314026,None,8006,001,05,2021_Nov_05_1419,task-switching-replication,2021.2.3,59.999542239820556,
2,37,experiment,05,standing,switch,congruant,dashed,square,blue,stimuli/dashed-rectangle.png,stimuli/blue-square.png,1,,,,,,,,,,,,,,,,,,,,,,,,,0,0,0,0,1,0,1,0,0,36,36,36,,,,,,,,,,,,,,,,,,,,,,,,,,,,,,,,,,,,,,,,,,,,,,,,,,,,,,,,,,,,,,,,,,,,,,,,,509.56340289115906,None,,,,,,,,,,,,,,,,,,,,,,,,,,,,,,,,,,,,,,,,,,,,,,,,,,,8006,001,05,2021_Nov_05_1419,task-switching-replication,2021.2.3,59.999542239820556,
2,38,experiment,05,standing,switch,congruant,solid,triangle,yellow,stimuli/solid-rectangle.png,stimuli/yellow-triangle.png,1,,,,,,,,,,,,,,,,,,,,,,,,,0,0,0,0,1,0,1,0,0,37,37,37,,,,,,,,,,,,,,,,,,,,,,,,,,,,,,,,,,,,,,,,,,,,,,,,,,,,,,,,,,,,,,,1636140476.5980518,,,,,,,,,,511.9556128978729,None,,,,,,,,,,,,,,,,,,,,,,,,,,,,,,,,,,,,,,,,,,509.76017785072327,None,510.74972581863403,None,1,1,1.0773811340332031,510.74972581863403,None,8006,001,05,2021_Nov_05_1419,task-switching-replication,2021.2.3,59.999542239820556,
2,39,experiment,05,standing,noswitch,congruant,solid,triangle,blue,stimuli/solid-rectangle.png,stimuli/blue-triangle.png,1,,,,,,,,,,,,,,,,,,,,,,,,,0,0,0,0,1,0,1,0,0,38,38,38,,,,,,,,,,,,,,,,,,,,,,,,,,,,,,,,,,,,,,,,,,,,,,,,,,,,,,,,,,,,,,,1636140478.4271286,,,,,,,,,,513.7857208251953,None,,,,,,,,,,,,,,,,,,,,,,,,,,,,,,,,,,,,,,,,,,512.1851599216461,None,513.1741008758545,None,1,1,0.4977090358734131,513.1741008758545,None,8006,001,05,2021_Nov_05_1419,task-switching-replication,2021.2.3,59.999542239820556,
2,40,experiment,05,standing,noswitch,incongruant,solid,square,yellow,stimuli/solid-rectangle.png,stimuli/yellow-square.png,2,,,,,,,,,,,,,,,,,,,,,,,,,0,0,0,0,1,0,1,0,0,39,39,39,,,,,,,,,,,,,,,,,,,,,,,,,,,,,,,,,,,,,,,,,,,,,,,,,,,,,,,,,,,,,,,1636140480.2615666,,,,,,,,,,515.6191828250885,None,,,,,,,,,,,,,,,,,,,,,,,,,,,,,,,,,,,,,,,,,,514.0149438381195,None,515.0042450428009,None,2,1,0.48653411865234375,515.0042450428009,None,8006,001,05,2021_Nov_05_1419,task-switching-replication,2021.2.3,59.999542239820556,
2,41,experiment,05,standing,noswitch,incongruant,solid,triangle,blue,stimuli/solid-rectangle.png,stimuli/blue-triangle.png,1,,,,,,,,,,,,,,,,,,,,,,,,,0,0,0,0,1,0,1,0,0,40,40,40,,,,,,,,,,,,,,,,,,,,,,,,,,,,,,,,,,,,,,,,,,,,,,,,,,,,,,,,,,,,,,,1636140482.1542222,,,,,,,,,,517.5118319988251,None,,,,,,,,,,,,,,,,,,,,,,,,,,,,,,,,,,,,,,,,,,515.8483200073242,None,516.8379888534546,None,1,1,0.5206179618835449,516.8379888534546,None,8006,001,05,2021_Nov_05_1419,task-switching-replication,2021.2.3,59.999542239820556,
2,42,experiment,05,standing,switch,congruant,dashed,triangle,blue,stimuli/dashed-rectangle.png,stimuli/blue-triangle.png,1,,,,,,,,,,,,,,,,,,,,,,,,,0,0,0,0,1,0,1,0,0,41,41,41,,,,,,,,,,,,,,,,,,,,,,,,,,,,,,,,,,,,,,,,,,,,,,,,,,,,,,,,,,,,,,,1636140483.8218093,,,,,,,,,,519.1802568435669,None,,,,,,,,,,,,,,,,,,,,,,,,,,,,,,,,,,,,,,,,,,517.741171836853,None,518.7364168167114,None,1,1,0.299267053604126,518.7364168167114,None,8006,001,05,2021_Nov_05_1419,task-switching-replication,2021.2.3,59.999542239820556,
2,43,experiment,05,standing,noswitch,incongruant,dashed,triangle,yellow,stimuli/dashed-rectangle.png,stimuli/yellow-triangle.png,2,,,,,,,,,,,,,,,,,,,,,,,,,0,0,0,0,1,0,1,0,0,42,42,42,,,,,,,,,,,,,,,,,,,,,,,,,,,,,,,,,,,,,,,,,,,,,,,,,,,,,,,,,,,,,,,1636140485.8298714,,,,,,,,,,521.1876380443573,None,,,,,,,,,,,,,,,,,,,,,,,,,,,,,,,,,,,,,,,,,,519.4092040061951,None,520.3984370231628,None,2,1,0.6553189754486084,520.3984370231628,None,8006,001,05,2021_Nov_05_1419,task-switching-replication,2021.2.3,59.999542239820556,
2,44,experiment,05,standing,noswitch,incongruant,dashed,square,blue,stimuli/dashed-rectangle.png,stimuli/blue-square.png,1,,,,,,,,,,,,,,,,,,,,,,,,,0,0,0,0,1,0,1,0,0,43,43,43,,,,,,,,,,,,,,,,,,,,,,,,,,,,,,,,,,,,,,,,,,,,,,,,,,,,,,,,,,,,,,,1636140487.602116,,,,,,,,,,522.9606440067291,None,,,,,,,,,,,,,,,,,,,,,,,,,,,,,,,,,,,,,,,,,,521.4178428649902,None,522.4083490371704,None,1,1,0.44552183151245117,522.4083490371704,None,8006,001,05,2021_Nov_05_1419,task-switching-replication,2021.2.3,59.999542239820556,
2,45,experiment,05,standing,noswitch,congruant,dashed,triangle,blue,stimuli/dashed-rectangle.png,stimuli/blue-triangle.png,1,,,,,,,,,,,,,,,,,,,,,,,,,0,0,0,0,1,0,1,0,0,44,44,44,,,,,,,,,,,,,,,,,,,,,,,,,,,,,,,,,,,,,,,,,,,,,,,,,,,,,,,,,,,,,,,1636140489.255564,,,,,,,,,,524.614068031311,None,,,,,,,,,,,,,,,,,,,,,,,,,,,,,,,,,,,,,,,,,,523.1898989677429,None,524.1798410415649,None,1,1,0.3069751262664795,524.1798410415649,None,8006,001,05,2021_Nov_05_1419,task-switching-replication,2021.2.3,59.999542239820556,
2,46,experiment,05,standing,switch,incongruant,solid,square,yellow,stimuli/solid-rectangle.png,stimuli/yellow-square.png,2,,,,,,,,,,,,,,,,,,,,,,,,,0,0,0,0,1,0,1,0,0,45,45,45,,,,,,,,,,,,,,,,,,,,,,,,,,,,,,,,,,,,,,,,,,,,,,,,,,,,,,,,,,,,,,,1636140490.9748435,,,,,,,,,,526.33251786232,None,,,,,,,,,,,,,,,,,,,,,,,,,,,,,,,,,,,,,,,,,,524.8441689014435,None,525.835443019867,None,2,1,0.3485758304595947,525.835443019867,None,8006,001,05,2021_Nov_05_1419,task-switching-replication,2021.2.3,59.999542239820556,
2,47,experiment,05,standing,noswitch,congruant,solid,square,blue,stimuli/solid-rectangle.png,stimuli/blue-square.png,2,,,,,,,,,,,,,,,,,,,,,,,,,0,0,0,0,1,0,1,0,0,46,46,46,,,,,,,,,,,,,,,,,,,,,,,,,,,,,,,,,,,,,,,,,,,,,,,,,,,,,,,,,,,,,,,1636140492.688016,,,,,,,,,,528.0464408397675,None,,,,,,,,,,,,,,,,,,,,,,,,,,,,,,,,,,,,,,,,,,526.5622758865356,None,527.5532908439636,None,2,1,0.36847400665283203,527.5532908439636,None,8006,001,05,2021_Nov_05_1419,task-switching-replication,2021.2.3,59.999542239820556,
2,48,experiment,05,standing,switch,incongruant,dashed,triangle,blue,stimuli/dashed-rectangle.png,stimuli/blue-triangle.png,1,,,,,,,,,,,,,,,,,,,,,,,,,0,0,0,0,1,0,1,0,0,47,47,47,,,,,,,,,,,,,,,,,,,,,,,,,,,,,,,,,,,,,,,,,,,,,,,,,,,,,,,,,,,,,,,1636140495.175621,,,,,,,,,,530.5332238674164,None,,,,,,,,,,,,,,,,,,,,,,,,,,,,,,,,,,,,,,,,,,528.2757320404053,None,529.2657098770142,None,1,1,1.113961935043335,529.2657098770142,None,8006,001,05,2021_Nov_05_1419,task-switching-replication,2021.2.3,59.999542239820556,
2,49,experiment,05,standing,switch,congruant,solid,triangle,yellow,stimuli/solid-rectangle.png,stimuli/yellow-triangle.png,1,,,,,,,,,,,,,,,,,,,,,,,,,0,0,0,0,1,0,1,0,0,48,48,48,,,,,,,,,,,,,,,,,,,,,,,,,,,,,,,,,,,,,,,,,,,,,,,,,,,,,,,,,,,,,,,1636140497.3606186,,,,,,,,,,532.7191109657288,None,,,,,,,,,,,,,,,,,,,,,,,,,,,,,,,,,,,,,,,,,,530.7625238895416,None,531.7521488666534,None,1,1,0.867462158203125,531.7521488666534,None,8006,001,05,2021_Nov_05_1419,task-switching-replication,2021.2.3,59.999542239820556,
,,,05,,,,,,,,,,,,,,,,,,,,,,,,,,,,,,,,,,0,0,0,0,1,0,1,0,,,,,,,,,,,,,,,,,,,,,,,,,,,,,,,,,,,,,,,,,,,,,,,,,,,,,,,,,,,,,,,,,,,,,,,,,,,,,,,,,,,,,,,,,,,,,,,,,,,,,,,,,,,,,,,,,,,,,,,,,,,,,,,,,8006,001,05,2021_Nov_05_1419,task-switching-replication,2021.2.3,59.999542239820556,
3,1,experiment,05,standing,buffer,buffer,solid,square,yellow,stimuli/solid-rectangle.png,stimuli/yellow-square.png,2,,,,,,,,,,,,,,,,,,,,,,,,,0,0,0,0,2,0,2,0,0,0,0,0,,,,,,,,,,,,,,,,,,,,,,,,,,,,,,,,,,,,,,,,,,,,,,,,,,,,,,,,,,,,,,,1636140507.1244361,,,,,,,,,,542.483372926712,None,,,,,,,,,,,,,,,,,,,,,,,,,,,,,,532.9489018917084,None,2,3.07715106010437,532.9489018917084,None,536.1738450527191,None,2,4.157977819442749,536.1738450527191,None,540.4667489528656,None,541.4564378261566,None,2,1,0.8852341175079346,541.4564378261566,None,8006,001,05,2021_Nov_05_1419,task-switching-replication,2021.2.3,59.999542239820556,
3,2,experiment,05,standing,switch,incongruant,dashed,square,blue,stimuli/dashed-rectangle.png,stimuli/blue-square.png,1,,,,,,,,,,,,,,,,,,,,,,,,,0,0,0,0,2,0,2,0,0,1,1,1,,,,,,,,,,,,,,,,,,,,,,,,,,,,,,,,,,,,,,,,,,,,,,,,,,,,,,,,,,,,,,,1636140509.6103156,,,,,,,,,,544.9680049419403,None,,,,,,,,,,,,,,,,,,,,,,,,,,,,,,,,,,,,,,,,,,542.7131249904633,None,543.7023799419403,None,1,1,1.1217889785766602,543.7023799419403,None,8006,001,05,2021_Nov_05_1419,task-switching-replication,2021.2.3,59.999542239820556,
3,3,experiment,05,standing,noswitch,congruant,dashed,square,blue,stimuli/dashed-rectangle.png,stimuli/blue-square.png,1,,,,,,,,,,,,,,,,,,,,,,,,,0,0,0,0,2,0,2,0,0,2,2,2,,,,,,,,,,,,,,,,,,,,,,,,,,,,,,,,,,,,,,,,,,,,,,,,,,,,,,,,,,,,,,,1636140511.3229291,,,,,,,,,,546.6814098358154,None,,,,,,,,,,,,,,,,,,,,,,,,,,,,,,,,,,,,,,,,,,545.1976268291473,None,546.1879680156708,None,1,1,0.3536369800567627,546.1879680156708,None,8006,001,05,2021_Nov_05_1419,task-switching-replication,2021.2.3,59.999542239820556,
3,4,experiment,05,standing,switch,congruant,solid,triangle,blue,stimuli/solid-rectangle.png,stimuli/blue-triangle.png,1,,,,,,,,,,,,,,,,,,,,,,,,,0,0,0,0,2,0,2,0,0,3,3,3,,,,,,,,,,,,,,,,,,,,,,,,,,,,,,,,,,,,,,,,,,,,,,,,,,,,,,,,,,,,,,,1636140513.0942883,,,,,,,,,,548.4528369903564,None,,,,,,,,,,,,,,,,,,,,,,,,,,,,,,,,,,,,,,,,,,546.9105699062347,None,547.9001939296722,None,1,1,0.4295330047607422,547.9001939296722,None,8006,001,05,2021_Nov_05_1419,task-switching-replication,2021.2.3,59.999542239820556,
3,5,experiment,05,standing,noswitch,incongruant,solid,square,blue,stimuli/solid-rectangle.png,stimuli/blue-square.png,2,,,,,,,,,,,,,,,,,,,,,,,,,0,0,0,0,2,0,2,0,0,4,4,4,,,,,,,,,,,,,,,,,,,,,,,,,,,,,,,,,,,,,,,,,,,,,,,,,,,,,,,,,,,,,,,1636140515.638237,,,,,,,,,,550.9961359500885,None,,,,,,,,,,,,,,,,,,,,,,,,,,,,,,,,,,,,,,,,,,548.682471036911,None,549.6719160079956,None,2,1,1.1851208209991455,549.6719160079956,None,8006,001,05,2021_Nov_05_1419,task-switching-replication,2021.2.3,59.999542239820556,
3,6,experiment,05,standing,switch,incongruant,dashed,triangle,blue,stimuli/dashed-rectangle.png,stimuli/blue-triangle.png,1,,,,,,,,,,,,,,,,,,,,,,,,,0,0,0,0,2,0,2,0,0,5,5,5,,,,,,,,,,,,,,,,,,,,,,,,,,,,,,,,,,,,,,,,,,,,,,,,,,,,,,,,,,,,,,,1636140517.8843763,,,,,,,,,,553.2421219348907,None,,,,,,,,,,,,,,,,,,,,,,,,,,,,,,,,,,,,,,,,,,551.2255258560181,None,552.2154719829559,None,1,1,0.8830380439758301,552.2154719829559,None,8006,001,05,2021_Nov_05_1419,task-switching-replication,2021.2.3,59.999542239820556,
3,7,experiment,05,standing,switch,congruant,solid,triangle,yellow,stimuli/solid-rectangle.png,stimuli/yellow-triangle.png,1,,,,,,,,,,,,,,,,,,,,,,,,,0,0,0,0,2,0,2,0,0,6,6,6,,,,,,,,,,,,,,,,,,,,,,,,,,,,,,,,,,,,,,,,,,,,,,,,,,,,,,,,,,,,,,,1636140520.1284184,,,,,,,,,,555.4869039058685,None,,,,,,,,,,,,,,,,,,,,,,,,,,,,,,,,,,,,,,,,,,553.4714119434357,None,554.4604439735413,None,1,1,0.8732409477233887,554.4604439735413,None,8006,001,05,2021_Nov_05_1419,task-switching-replication,2021.2.3,59.999542239820556,
3,8,experiment,05,standing,switch,incongruant,dashed,square,yellow,stimuli/dashed-rectangle.png,stimuli/yellow-square.png,2,,,,,,,,,,,,,,,,,,,,,,,,,0,0,0,0,2,0,2,0,0,7,7,7,,,,,,,,,,,,,,,,,,,,,,,,,,,,,,,,,,,,,,,,,,,,,,,,,,,,,,,,,,,,,,,1636140522.314876,,,,,,,,,,557.6732280254364,None,,,,,,,,,,,,,,,,,,,,,,,,,,,,,,,,,,,,,,,,,,555.7162349224091,None,556.7058219909668,None,2,1,0.8513798713684082,556.7058219909668,None,8006,001,05,2021_Nov_05_1419,task-switching-replication,2021.2.3,59.999542239820556,
3,9,experiment,05,standing,switch,congruant,solid,square,yellow,stimuli/solid-rectangle.png,stimuli/yellow-square.png,2,,,,,,,,,,,,,,,,,,,,,,,,,0,0,0,0,2,0,2,0,0,8,8,8,,,,,,,,,,,,,,,,,,,,,,,,,,,,,,,,,,,,,,,,,,,,,,,,,,,,,,,,,,,,,,,1636140524.502136,,,,,,,,,,559.860592842102,None,,,,,,,,,,,,,,,,,,,,,,,,,,,,,,,,,,,,,,,,,,557.9027099609375,None,558.8931498527527,None,2,1,0.8265540599822998,558.8931498527527,None,8006,001,05,2021_Nov_05_1419,task-switching-replication,2021.2.3,59.999542239820556,
3,10,experiment,05,standing,noswitch,incongruant,solid,triangle,yellow,stimuli/solid-rectangle.png,stimuli/yellow-triangle.png,1,,,,,,,,,,,,,,,,,,,,,,,,,0,0,0,0,2,0,2,0,0,9,9,9,,,,,,,,,,,,,,,,,,,,,,,,,,,,,,,,,,,,,,,,,,,,,,,,,,,,,,,,,,,,,,,1636140526.154639,,,,,,,,,,561.51265001297,None,,,,,,,,,,,,,,,,,,,,,,,,,,,,,,,,,,,,,,,,,,560.0899119377136,None,561.079293012619,None,1,1,0.32491087913513184,561.079293012619,None,8006,001,05,2021_Nov_05_1419,task-switching-replication,2021.2.3,59.999542239820556,
3,11,experiment,05,standing,noswitch,incongruant,solid,square,blue,stimuli/solid-rectangle.png,stimuli/blue-square.png,2,,,,,,,,,,,,,,,,,,,,,,,,,0,0,0,0,2,0,2,0,0,10,10,10,,,,,,,,,,,,,,,,,,,,,,,,,,,,,,,,,,,,,,,,,,,,,,,,,,,,,,,,,,,,,,,1636140528.8736424,,,,,,,,,,564.2320098876953,None,,,,,,,,,,,,,,,,,,,,,,,,,,,,,,,,,,,,,,,,,,561.7420568466187,None,562.7318818569183,None,2,1,1.3884820938110352,562.7318818569183,None,8006,001,05,2021_Nov_05_1419,task-switching-replication,2021.2.3,59.999542239820556,
3,12,experiment,05,standing,switch,congruant,dashed,square,yellow,stimuli/dashed-rectangle.png,stimuli/yellow-square.png,2,,,,,,,,,,,,,,,,,,,,,,,,,0,0,0,0,2,0,2,0,0,11,11,11,,,,,0,0,0,0,,,,,,,,,,,,,,,,,,,,,,,,,,,,,,,,,,,,,,,,,,,,,,,,,,,,,,,1636140531.5933428,,,,,,,,,,,,,,,,,,,,,,,,,,,,,,,,,,,,,566.9327202796935,567.9557349681854,566.9644498825073,None,,,,,,,,,,,,,564.4615669250488,None,565.451318025589,None,None,0,,565.451318025589,None,8006,001,05,2021_Nov_05_1419,task-switching-replication,2021.2.3,59.999542239820556,
3,12,experiment,05,standing,switch,congruant,dashed,square,yellow,stimuli/dashed-rectangle.png,stimuli/yellow-square.png,2,,,,,,,,,,,,,,,,,,,,,,,,,0,0,0,0,2,0,2,0,0,11,11,11,,,,,,,,,,,,,,,,,,,,,,,,,,,,,,,,,,,,,,,,,,,,,,,,,,,,,,,,,,,,,,,,,,,,,,,,,571.9673130512238,None,,,,,,,,,,,,,,,,,,,,,,,,,,,,,,,,,,,,,,,,,,,,,,,,,,,8006,001,05,2021_Nov_05_1419,task-switching-replication,2021.2.3,59.999542239820556,
3,13,experiment,05,standing,switch,congruant,solid,square,yellow,stimuli/solid-rectangle.png,stimuli/yellow-square.png,2,,,,,,,,,,,,,,,,,,,,,,,,,0,0,0,0,2,0,2,0,0,12,12,12,,,,,,,,,,,,,,,,,,,,,,,,,,,,,,,,,,,,,,,,,,,,,,,,,,,,,,,,,,,,,,,1636140538.5865865,,,,,,,,,,573.9450569152832,None,,,,,,,,,,,,,,,,,,,,,,,,,,,,,,,,,,,,,,,,,,572.1642370223999,None,573.1555559635162,None,2,1,0.6920020580291748,573.1555559635162,None,8006,001,05,2021_Nov_05_1419,task-switching-replication,2021.2.3,59.999542239820556,
3,14,experiment,05,standing,noswitch,incongruant,solid,triangle,blue,stimuli/solid-rectangle.png,stimuli/blue-triangle.png,1,,,,,,,,,,,,,,,,,,,,,,,,,0,0,0,0,2,0,2,0,0,13,13,13,,,,,,,,,,,,,,,,,,,,,,,,,,,,,,,,,,,,,,,,,,,,,,,,,,,,,,,,,,,,,,,1636140540.4799585,,,,,,,,,,575.8378460407257,None,,,,,,,,,,,,,,,,,,,,,,,,,,,,,,,,,,,,,,,,,,574.1744740009308,None,575.1640470027924,None,1,1,0.5246520042419434,575.1640470027924,None,8006,001,05,2021_Nov_05_1419,task-switching-replication,2021.2.3,59.999542239820556,
3,15,experiment,05,standing,switch,congruant,dashed,square,blue,stimuli/dashed-rectangle.png,stimuli/blue-square.png,1,,,,,,,,,,,,,,,,,,,,,,,,,0,0,0,0,2,0,2,0,0,14,14,14,,,,,,,,,,,,,,,,,,,,,,,,,,,,,,,,,,,,,,,,,,,,,,,,,,,,,,,,,,,,,,,1636140542.3095183,,,,,,,,,,577.6681668758392,None,,,,,,,,,,,,,,,,,,,,,,,,,,,,,,,,,,,,,,,,,,576.0671908855438,None,577.0565629005432,None,1,1,0.4628939628601074,577.0565629005432,None,8006,001,05,2021_Nov_05_1419,task-switching-replication,2021.2.3,59.999542239820556,
3,16,experiment,05,standing,noswitch,congruant,dashed,triangle,blue,stimuli/dashed-rectangle.png,stimuli/blue-triangle.png,1,,,,,,,,,,,,,,,,,,,,,,,,,0,0,0,0,2,0,2,0,0,15,15,15,,,,,,,,,,,,,,,,,,,,,,,,,,,,,,,,,,,,,,,,,,,,,,,,,,,,,,,,,,,,,,,1636140543.9612699,,,,,,,,,,579.3200778961182,None,,,,,,,,,,,,,,,,,,,,,,,,,,,,,,,,,,,,,,,,,,577.897157907486,None,578.8861968517303,None,1,1,0.32216906547546387,578.8861968517303,None,8006,001,05,2021_Nov_05_1419,task-switching-replication,2021.2.3,59.999542239820556,
3,17,experiment,05,standing,noswitch,congruant,dashed,triangle,blue,stimuli/dashed-rectangle.png,stimuli/blue-triangle.png,1,,,,,,,,,,,,,,,,,,,,,,,,,0,0,0,0,2,0,2,0,0,16,16,16,,,,,,,,,,,,,,,,,,,,,,,,,,,,,,,,,,,,,,,,,,,,,,,,,,,,,,,,,,,,,,,1636140545.5541675,,,,,,,,,,580.9126739501953,None,,,,,,,,,,,,,,,,,,,,,,,,,,,,,,,,,,,,,,,,,,579.5493528842926,None,580.5382299423218,None,1,1,0.26812100410461426,580.5382299423218,None,8006,001,05,2021_Nov_05_1419,task-switching-replication,2021.2.3,59.999542239820556,
3,18,experiment,05,standing,switch,congruant,solid,triangle,yellow,stimuli/solid-rectangle.png,stimuli/yellow-triangle.png,1,,,,,,,,,,,,,,,,,,,,,,,,,0,0,0,0,2,0,2,0,0,17,17,17,,,,,,,,,,,,,,,,,,,,,,,,,,,,,,,,,,,,,,,,,,,,,,,,,,,,,,,,,,,,,,,1636140547.6225216,,,,,,,,,,582.981024980545,None,,,,,,,,,,,,,,,,,,,,,,,,,,,,,,,,,,,,,,,,,,581.1419389247894,None,582.132138967514,None,1,1,0.712615966796875,582.132138967514,None,8006,001,05,2021_Nov_05_1419,task-switching-replication,2021.2.3,59.999542239820556,
3,19,experiment,05,standing,switch,incongruant,dashed,square,yellow,stimuli/dashed-rectangle.png,stimuli/yellow-square.png,2,,,,,,,,,,,,,,,,,,,,,,,,,0,0,0,0,2,0,2,0,0,18,18,18,,,,,,,,,,,,,,,,,,,,,,,,,,,,,,,,,,,,,,,,,,,,,,,,,,,,,,,,,,,,,,,1636140549.3371744,,,,,,,,,,584.6949410438538,None,,,,,,,,,,,,,,,,,,,,,,,,,,,,,,,,,,,,,,,,,,583.2106668949127,None,584.2010128498077,None,2,1,0.3654160499572754,584.2010128498077,None,8006,001,05,2021_Nov_05_1419,task-switching-replication,2021.2.3,59.999542239820556,
3,20,experiment,05,standing,noswitch,congruant,dashed,triangle,yellow,stimuli/dashed-rectangle.png,stimuli/yellow-triangle.png,2,,,,,,,,,,,,,,,,,,,,,,,,,0,0,0,0,2,0,2,0,0,19,19,19,,,,,0,0,0,0,,,,,,,,,,,,,,,,,,,,,,,,,,,,,,,,,,,,,,,,,,,,,,,,,,,,,,,1636140551.2857528,,,,,,,,,,,,,,,,,,,,,,,,,,,,,,,,,,,,,586.615896821022,587.6343920230865,586.6485550403595,None,,,,,,,,,,,,,584.9243409633636,None,585.9143269062042,None,1,0,0.6198229789733887,585.9143269062042,None,8006,001,05,2021_Nov_05_1419,task-switching-replication,2021.2.3,59.999542239820556,
3,20,experiment,05,standing,noswitch,congruant,dashed,triangle,yellow,stimuli/dashed-rectangle.png,stimuli/yellow-triangle.png,2,,,,,,,,,,,,,,,,,,,,,,,,,0,0,0,0,2,0,2,0,0,19,19,19,,,,,,,,,,,,,,,,,,,,,,,,,,,,,,,,,,,,,,,,,,,,,,,,,,,,,,,,,,,,,,,,,,,,,,,,,591.6482918262482,None,,,,,,,,,,,,,,,,,,,,,,,,,,,,,,,,,,,,,,,,,,,,,,,,,,,8006,001,05,2021_Nov_05_1419,task-switching-replication,2021.2.3,59.999542239820556,
3,21,experiment,05,standing,switch,incongruant,solid,triangle,yellow,stimuli/solid-rectangle.png,stimuli/yellow-triangle.png,1,,,,,,,,,,,,,,,,,,,,,,,,,0,0,0,0,2,0,2,0,0,20,20,20,,,,,,,,,,,,,,,,,,,,,,,,,,,,,,,,,,,,,,,,,,,,,,,,,,,,,,,,,,,,,,,1636140558.8327134,,,,,,,,,,594.1912970542908,None,,,,,,,,,,,,,,,,,,,,,,,,,,,,,,,,,,,,,,,,,,591.8771548271179,None,592.8674018383026,None,1,1,1.184107780456543,592.8674018383026,None,8006,001,05,2021_Nov_05_1419,task-switching-replication,2021.2.3,59.999542239820556,
3,22,experiment,05,standing,switch,incongruant,dashed,triangle,yellow,stimuli/dashed-rectangle.png,stimuli/yellow-triangle.png,2,,,,,,,,,,,,,,,,,,,,,,,,,0,0,0,0,2,0,2,0,0,21,21,21,,,,,,,,,,,,,,,,,,,,,,,,,,,,,,,,,,,,,,,,,,,,,,,,,,,,,,,,,,,,,,,1636140561.1978958,,,,,,,,,,596.5564498901367,None,,,,,,,,,,,,,,,,,,,,,,,,,,,,,,,,,,,,,,,,,,594.4213728904724,None,595.4111859798431,None,2,1,1.0301640033721924,595.4111859798431,None,8006,001,05,2021_Nov_05_1419,task-switching-replication,2021.2.3,59.999542239820556,
3,23,experiment,05,standing,switch,congruant,solid,square,blue,stimuli/solid-rectangle.png,stimuli/blue-square.png,2,,,,,,,,,,,,,,,,,,,,,,,,,0,0,0,0,2,0,2,0,0,22,22,22,,,,,,,,,,,,,,,,,,,,,,,,,,,,,,,,,,,,,,,,,,,,,,,,,,,,,,,,,,,,,,,1636140563.3261025,,,,,,,,,,598.684602022171,None,,,,,,,,,,,,,,,,,,,,,,,,,,,,,,,,,,,,,,,,,,596.7859239578247,None,597.7763249874115,None,2,1,0.7620790004730225,597.7763249874115,None,8006,001,05,2021_Nov_05_1419,task-switching-replication,2021.2.3,59.999542239820556,
3,24,experiment,05,standing,noswitch,incongruant,solid,triangle,yellow,stimuli/solid-rectangle.png,stimuli/yellow-triangle.png,1,,,,,,,,,,,,,,,,,,,,,,,,,0,0,0,0,2,0,2,0,0,23,23,23,,,,,,,,,,,,,,,,,,,,,,,,,,,,,,,,,,,,,,,,,,,,,,,,,,,,,,,,,,,,,,,1636140565.809427,,,,,,,,,,601.1680119037628,None,,,,,,,,,,,,,,,,,,,,,,,,,,,,,,,,,,,,,,,,,,598.9136438369751,None,599.9034638404846,None,1,1,1.1501669883728027,599.9034638404846,None,8006,001,05,2021_Nov_05_1419,task-switching-replication,2021.2.3,59.999542239820556,
3,25,experiment,05,standing,switch,incongruant,dashed,triangle,yellow,stimuli/dashed-rectangle.png,stimuli/yellow-triangle.png,2,,,,,,,,,,,,,,,,,,,,,,,,,0,0,0,0,2,0,2,0,0,24,24,24,,,,,0,0,0,0,,,,,,,,,,,,,,,,,,,,,,,,,,,,,,,,,,,,,,,,,,,,,,,,,,,,,,,1636140568.293474,,,,,,,,,,,,,,,,,,,,,,,,,,,,,,,,,,,,,603.6235538721085,604.6474919319153,603.6571140289307,None,,,,,,,,,,,,,601.3973488807678,None,602.3873410224915,None,1,0,1.1548998355865479,602.3873410224915,None,8006,001,05,2021_Nov_05_1419,task-switching-replication,2021.2.3,59.999542239820556,
3,25,experiment,05,standing,switch,incongruant,dashed,triangle,yellow,stimuli/dashed-rectangle.png,stimuli/yellow-triangle.png,2,,,,,,,,,,,,,,,,,,,,,,,,,0,0,0,0,2,0,2,0,0,24,24,24,,,,,,,,,,,,,,,,,,,,,,,,,,,,,,,,,,,,,,,,,,,,,,,,,,,,,,,,,,,,,,,,,,,,,,,,,608.6538100242615,None,,,,,,,,,,,,,,,,,,,,,,,,,,,,,,,,,,,,,,,,,,,,,,,,,,,8006,001,05,2021_Nov_05_1419,task-switching-replication,2021.2.3,59.999542239820556,
3,26,experiment,05,standing,switch,congruant,solid,square,blue,stimuli/solid-rectangle.png,stimuli/blue-square.png,2,,,,,,,,,,,,,,,,,,,,,,,,,0,0,0,0,2,0,2,0,0,25,25,25,,,,,,,,,,,,,,,,,,,,,,,,,,,,,,,,,,,,,,,,,,,,,,,,,,,,,,,,,,,,,,,1636140575.362793,,,,,,,,,,610.7213628292084,None,,,,,,,,,,,,,,,,,,,,,,,,,,,,,,,,,,,,,,,,,,608.8835229873657,None,609.8728749752045,None,2,1,0.739454984664917,609.8728749752045,None,8006,001,05,2021_Nov_05_1419,task-switching-replication,2021.2.3,59.999542239820556,
3,27,experiment,05,standing,switch,incongruant,dashed,square,blue,stimuli/dashed-rectangle.png,stimuli/blue-square.png,1,,,,,,,,,,,,,,,,,,,,,,,,,0,0,0,0,2,0,2,0,0,26,26,26,,,,,,,,,,,,,,,,,,,,,,,,,,,,,,,,,,,,,,,,,,,,,,,,,,,,,,,,,,,,,,,1636140578.0292656,,,,,,,,,,613.3871250152588,None,,,,,,,,,,,,,,,,,,,,,,,,,,,,,,,,,,,,,,,,,,610.9508738517761,None,611.9409689903259,None,1,1,1.3024210929870605,611.9409689903259,None,8006,001,05,2021_Nov_05_1419,task-switching-replication,2021.2.3,59.999542239820556,
3,28,experiment,05,standing,noswitch,incongruant,dashed,triangle,yellow,stimuli/dashed-rectangle.png,stimuli/yellow-triangle.png,2,,,,,,,,,,,,,,,,,,,,,,,,,0,0,0,0,2,0,2,0,0,27,27,27,,,,,,,,,,,,,,,,,,,,,,,,,,,,,,,,,,,,,,,,,,,,,,,,,,,,,,,,,,,,,,,1636140579.919725,,,,,,,,,,615.2776880264282,None,,,,,,,,,,,,,,,,,,,,,,,,,,,,,,,,,,,,,,,,,,613.6171319484711,None,614.6073229312897,None,2,1,0.5532450675964355,614.6073229312897,None,8006,001,05,2021_Nov_05_1419,task-switching-replication,2021.2.3,59.999542239820556,
3,29,experiment,05,standing,noswitch,incongruant,dashed,square,blue,stimuli/dashed-rectangle.png,stimuli/blue-square.png,1,,,,,,,,,,,,,,,,,,,,,,,,,0,0,0,0,2,0,2,0,0,28,28,28,,,,,,,,,,,,,,,,,,,,,,,,,,,,,,,,,,,,,,,,,,,,,,,,,,,,,,,,,,,,,,,1636140581.9297194,,,,,,,,,,617.2874479293823,None,,,,,,,,,,,,,,,,,,,,,,,,,,,,,,,,,,,,,,,,,,615.5069718360901,None,616.4964039325714,None,1,1,0.652101993560791,616.4964039325714,None,8006,001,05,2021_Nov_05_1419,task-switching-replication,2021.2.3,59.999542239820556,
3,30,experiment,05,standing,noswitch,incongruant,dashed,square,yellow,stimuli/dashed-rectangle.png,stimuli/yellow-square.png,2,,,,,,,,,,,,,,,,,,,,,,,,,0,0,0,0,2,0,2,0,0,29,29,29,,,,,,,,,,,,,,,,,,,,,,,,,,,,,,,,,,,,,,,,,,,,,,,,,,,,,,,,,,,,,,,1636140583.99626,,,,,,,,,,619.354348897934,None,,,,,,,,,,,,,,,,,,,,,,,,,,,,,,,,,,,,,,,,,,617.5170040130615,None,618.5063288211823,None,2,1,0.7317030429840088,618.5063288211823,None,8006,001,05,2021_Nov_05_1419,task-switching-replication,2021.2.3,59.999542239820556,
3,31,experiment,05,standing,noswitch,incongruant,dashed,triangle,blue,stimuli/dashed-rectangle.png,stimuli/blue-triangle.png,1,,,,,,,,,,,,,,,,,,,,,,,,,0,0,0,0,2,0,2,0,0,30,30,30,,,,,,,,,,,,,,,,,,,,,,,,,,,,,,,,,,,,,,,,,,,,,,,,,,,,,,,,,,,,,,,1636140586.1231422,,,,,,,,,,621.4809880256653,None,,,,,,,,,,,,,,,,,,,,,,,,,,,,,,,,,,,,,,,,,,619.5837509632111,None,620.5729749202728,None,1,1,0.7545289993286133,620.5729749202728,None,8006,001,05,2021_Nov_05_1419,task-switching-replication,2021.2.3,59.999542239820556,
3,32,experiment,05,standing,switch,incongruant,solid,square,blue,stimuli/solid-rectangle.png,stimuli/blue-square.png,2,,,,,,,,,,,,,,,,,,,,,,,,,0,0,0,0,2,0,2,0,0,31,31,31,,,,,,,,,,,,,,,,,,,,,,,,,,,,,,,,,,,,,,,,,,,,,,,,,,,,,,,,,,,,,,,1636140588.6653175,,,,,,,,,,624.0232129096985,None,,,,,,,,,,,,,,,,,,,,,,,,,,,,,,,,,,,,,,,,,,621.7103729248047,None,622.7002940177917,None,2,1,1.1640419960021973,622.7002940177917,None,8006,001,05,2021_Nov_05_1419,task-switching-replication,2021.2.3,59.999542239820556,
3,33,experiment,05,standing,noswitch,congruant,solid,square,blue,stimuli/solid-rectangle.png,stimuli/blue-square.png,2,,,,,,,,,,,,,,,,,,,,,,,,,0,0,0,0,2,0,2,0,0,32,32,32,,,,,,,,,,,,,,,,,,,,,,,,,,,,,,,,,,,,,,,,,,,,,,,,,,,,,,,,,,,,,,,1636140590.3181992,,,,,,,,,,625.676647901535,None,,,,,,,,,,,,,,,,,,,,,,,,,,,,,,,,,,,,,,,,,,624.252683877945,None,625.2428300380707,None,2,1,0.3275289535522461,625.2428300380707,None,8006,001,05,2021_Nov_05_1419,task-switching-replication,2021.2.3,59.999542239820556,
3,34,experiment,05,standing,noswitch,congruant,solid,square,yellow,stimuli/solid-rectangle.png,stimuli/yellow-square.png,2,,,,,,,,,,,,,,,,,,,,,,,,,0,0,0,0,2,0,2,0,0,33,33,33,,,,,,,,,,,,,,,,,,,,,,,,,,,,,,,,,,,,,,,,,,,,,,,,,,,,,,,,,,,,,,,1636140592.2075763,,,,,,,,,,627.5659608840942,None,,,,,,,,,,,,,,,,,,,,,,,,,,,,,,,,,,,,,,,,,,625.9058589935303,None,626.8952648639679,None,2,1,0.5281200408935547,626.8952648639679,None,8006,001,05,2021_Nov_05_1419,task-switching-replication,2021.2.3,59.999542239820556,
