blockNum,trialNum,trialType,condition,posture,switchTrialType,congruantTrialType,cueType,shapeType,shapeColor,cueFileName,stimuliFileName,correctAnswer,untimedTrials.thisRepN,untimedTrials.thisTrialN,untimedTrials.thisN,untimedTrials.thisIndex,selectSolid1.thisRepN,selectSolid1.thisTrialN,selectSolid1.thisN,selectSolid1.thisIndex,selectDashed1.thisRepN,selectDashed1.thisTrialN,selectDashed1.thisN,selectDashed1.thisIndex,timedTrials.thisRepN,timedTrials.thisTrialN,timedTrials.thisN,timedTrials.thisIndex,selectSolid2.thisRepN,selectSolid2.thisTrialN,selectSolid2.thisN,selectSolid2.thisIndex,selectDashed2.thisRepN,selectDashed2.thisTrialN,selectDashed2.thisN,selectDashed2.thisIndex,postures.thisRepN,postures.thisTrialN,postures.thisN,postures.thisIndex,blocks.thisRepN,blocks.thisTrialN,blocks.thisN,blocks.thisIndex,trials.thisRepN,trials.thisTrialN,trials.thisN,trials.thisIndex,selectSolid.thisRepN,selectSolid.thisTrialN,selectSolid.thisN,selectSolid.thisIndex,selectDashed.thisRepN,selectDashed.thisTrialN,selectDashed.thisN,selectDashed.thisIndex,text_3.started,text_3.stopped,key_resp_2.keys,key_resp_2.rt,key_resp_2.started,key_resp_2.stopped,image_4.started,image_4.stopped,key_resp_4.keys,key_resp_4.rt,key_resp_4.started,key_resp_4.stopped,image_5.started,image_5.stopped,key_resp_5.keys,key_resp_5.rt,key_resp_5.started,key_resp_5.stopped,image_6.started,image_6.stopped,key_resp_6.keys,key_resp_6.rt,key_resp_6.started,key_resp_6.stopped,image_7.started,image_7.stopped,key_resp_7.keys,key_resp_7.rt,key_resp_7.started,key_resp_7.stopped,image_8.started,image_8.stopped,key_resp_8.keys,key_resp_8.rt,key_resp_8.started,key_resp_8.stopped,image_9.started,image_9.stopped,key_resp_9.keys,key_resp_9.rt,key_resp_9.started,key_resp_9.stopped,image_10.started,image_10.stopped,key_resp_10.keys,key_resp_10.rt,key_resp_10.started,key_resp_10.stopped,image_11.started,image_11.stopped,key_resp_11.keys,key_resp_11.rt,key_resp_11.started,key_resp_11.stopped,utcTime,cue_untimed_image.started,cue_untimed_image.stopped,stimuli_untimed_image.started,stimuli_untimed_image.stopped,untimed_resp.keys,untimed_resp.corr,untimed_resp.rt,untimed_resp.started,untimed_resp.stopped,text_2.started,text_2.stopped,sound_2.started,sound_2.stopped,image_3.started,image_3.stopped,sound_1.started,sound_1.stopped,image_2.started,image_2.stopped,image_12.started,image_12.stopped,key_resp_12.keys,key_resp_12.rt,key_resp_12.started,key_resp_12.stopped,image_13.started,image_13.stopped,key_resp_13.keys,key_resp_13.rt,key_resp_13.started,key_resp_13.stopped,cue_timed_image.started,cue_timed_image.stopped,stimuli_timed_image.started,stimuli_timed_image.stopped,timed_resp.keys,timed_resp.corr,timed_resp.rt,timed_resp.started,timed_resp.stopped,image.started,image.stopped,key_response.keys,key_response.rt,key_response.started,key_response.stopped,text.started,text.stopped,key_resp.keys,key_resp.rt,key_resp.started,key_resp.stopped,cue_image.started,cue_image.stopped,stimuli_image.started,stimuli_image.stopped,exp_resp.keys,exp_resp.corr,exp_resp.rt,exp_resp.started,exp_resp.stopped,text_4.started,text_4.stopped,key_resp_3.keys,key_resp_3.rt,key_resp_3.started,key_resp_3.stopped,participant,session,condition,date,expName,psychopyVersion,frameRate,
,,,06,,,,,,,,,,,,,,,,,,,,,,,,,,,,,,,,,,,,,,,,,,,,,,,,,,,,,,80.45241403579712,None,2,4.835190057754517,80.45241403579712,None,,,,,,,,,,,,,,,,,,,,,,,,,,,,,,,,,,,,,,,,,,,,,,,,,,,,,,,,,,,,,,,,,,,,,,,,,,,,,,,,,,,,,,,,,,,,,,,,,,,,,,,,,,,,,,,,,,,,,8008,001,06,2021_Nov_05_1513,task-switching-replication,2021.2.3,60.01276287662648,
,,,06,,,,,,,,,,,,,,,,,,,,,,,,,,,,,,,,,,,,,,,,,,,,,,,,,,,,,,,,,,,,85.32720994949341,None,2,4.070265054702759,85.32720994949341,None,,,,,,,,,,,,,,,,,,,,,,,,,,,,,,,,,,,,,,,,,,,,,,,,,,,,,,,,,,,,,,,,,,,,,,,,,,,,,,,,,,,,,,,,,,,,,,,,,,,,,,,,,,,,,,,8008,001,06,2021_Nov_05_1513,task-switching-replication,2021.2.3,60.01276287662648,
,,,06,,,,,,,,,,,,,,,,,,,,,,,,,,,,,,,,,,,,,,,,,,,,,,,,,,,,,,,,,,,,,,,,,,89.42452788352966,None,1,15.20056700706482,89.42452788352966,None,,,,,,,,,,,,,,,,,,,,,,,,,,,,,,,,,,,,,,,,,,,,,,,,,,,,,,,,,,,,,,,,,,,,,,,,,,,,,,,,,,,,,,,,,,,,,,,,,,,,,,,,,8008,001,06,2021_Nov_05_1513,task-switching-replication,2021.2.3,60.01276287662648,
,,,06,,,,,,,,,,,,,,,,,,,,,,,,,,,,,,,,,,,,,,,,,,,,,,,,,,,,,,,,,,,,,,,,,,,,,,,,104.67302799224854,None,2,3.4943628311157227,104.67302799224854,None,,,,,,,,,,,,,,,,,,,,,,,,,,,,,,,,,,,,,,,,,,,,,,,,,,,,,,,,,,,,,,,,,,,,,,,,,,,,,,,,,,,,,,,,,,,,,,,,,,,8008,001,06,2021_Nov_05_1513,task-switching-replication,2021.2.3,60.01276287662648,
,,,06,,,,,,,,,,,,,,,,,,,,,,,,,,,,,,,,,,,,,,,,,,,,,,,,,,,,,,,,,,,,,,,,,,,,,,,,,,,,,,108.22058391571045,None,2,1.8977460861206055,108.22058391571045,None,,,,,,,,,,,,,,,,,,,,,,,,,,,,,,,,,,,,,,,,,,,,,,,,,,,,,,,,,,,,,,,,,,,,,,,,,,,,,,,,,,,,,,,,,,,,,8008,001,06,2021_Nov_05_1513,task-switching-replication,2021.2.3,60.01276287662648,
,,,06,,,,,,,,,,,,,,,,,,,,,,,,,,,,,,,,,,,,,,,,,,,,,,,,,,,,,,,,,,,,,,,,,,,,,,,,,,,,,,,,,,,,110.16483688354492,None,1,5.89879298210144,110.16483688354492,None,,,,,,,,,,,,,,,,,,,,,,,,,,,,,,,,,,,,,,,,,,,,,,,,,,,,,,,,,,,,,,,,,,,,,,,,,,,,,,,,,,,,,,,8008,001,06,2021_Nov_05_1513,task-switching-replication,2021.2.3,60.01276287662648,
,,,06,,,,,,,,,,,,,,,,,,,,,,,,,,,,,,,,,,,,,,,,,,,,,,,,,,,,,,,,,,,,,,,,,,,,,,,,,,,,,,,,,,,,,,,,,,116.14146590232849,None,2,3.721000909805298,116.14146590232849,None,,,,,,,,,,,,,,,,,,,,,,,,,,,,,,,,,,,,,,,,,,,,,,,,,,,,,,,,,,,,,,,,,,,,,,,,,,,,,,,,,8008,001,06,2021_Nov_05_1513,task-switching-replication,2021.2.3,60.01276287662648,
,,,06,,,,,,,,,,,,,,,,,,,,,,,,,,,,,,,,,,,,,,,,,,,,,,,,,,,,,,,,,,,,,,,,,,,,,,,,,,,,,,,,,,,,,,,,,,,,,,,,119.92208290100098,None,2,1.8202970027923584,119.92208290100098,None,,,,,,,,,,,,,,,,,,,,,,,,,,,,,,,,,,,,,,,,,,,,,,,,,,,,,,,,,,,,,,,,,,,,,,,,,,,8008,001,06,2021_Nov_05_1513,task-switching-replication,2021.2.3,60.01276287662648,
,,,06,,,,,,,,,,,,,,,,,,,,,,,,,,,,,,,,,,,,,,,,,,,,,,,,,,,,,,,,,,,,,,,,,,,,,,,,,,,,,,,,,,,,,,,,,,,,,,,,,,,,,,121.82782196998596,None,2,2.989591121673584,121.82782196998596,None,,,,,,,,,,,,,,,,,,,,,,,,,,,,,,,,,,,,,,,,,,,,,,,,,,,,,,,,,,,,,,,,,,,,,8008,001,06,2021_Nov_05_1513,task-switching-replication,2021.2.3,60.01276287662648,
1,1,untimed,06,standing,buffer,buffer,dashed,square,blue,stimuli/dashed-rectangle.png,stimuli/blue-square.png,1,0,0,0,0,,,,,,,,,,,,,,,,,,,,,,,,,,,,,,,,,,,,,,,,,,,,,,,,,,,,,,,,,,,,,,,,,,,,,,,,,,,,,,,,,,,,,,,,,,,,,,,1636143265.2977316,124.89598393440247,None,125.87619185447693,None,1,1,0.6855330467224121,125.87619185447693,None,126.6586229801178,None,,,,,,,,,,,,,,,,,,,,,,,,,,,,,,,,,,,,,,,,,,,,,,,,,,,,,,,,,8008,001,06,2021_Nov_05_1513,task-switching-replication,2021.2.3,60.01276287662648,
1,2,untimed,06,standing,noswitch,incongruant,dashed,triangle,yellow,stimuli/dashed-rectangle.png,stimuli/yellow-triangle.png,2,0,1,1,1,,,,,,,,,,,,,,,,,,,,,,,,,,,,,,,,,,,,,,,,,,,,,,,,,,,,,,,,,,,,,,,,,,,,,,,,,,,,,,,,,,,,,,,,,,,,,,,1636143267.2684484,126.86628198623657,None,127.84714102745056,None,2,1,0.7096190452575684,127.84714102745056,None,128.629154920578,None,,,,,,,,,,,,,,,,,,,,,,,,,,,,,,,,,,,,,,,,,,,,,,,,,,,,,,,,,8008,001,06,2021_Nov_05_1513,task-switching-replication,2021.2.3,60.01276287662648,
1,3,untimed,06,standing,noswitch,incongruant,dashed,triangle,blue,stimuli/dashed-rectangle.png,stimuli/blue-triangle.png,1,0,2,2,2,,,,,0,0,0,0,,,,,,,,,,,,,,,,,,,,,,,,,,,,,,,,,,,,,,,,,,,,,,,,,,,,,,,,,,,,,,,,,,,,,,,,,,,,,,,,,,,,,,,1636143269.3706067,128.836571931839,None,129.82563996315002,None,2,0,0.8356790542602539,129.82563996315002,None,,,130.73716986179352,131.7576789855957,130.75169396400452,None,,,,,,,,,,,,,,,,,,,,,,,,,,,,,,,,,,,,,,,,,,,,,,,,,,,,,8008,001,06,2021_Nov_05_1513,task-switching-replication,2021.2.3,60.01276287662648,
1,3,untimed,06,standing,noswitch,incongruant,dashed,triangle,blue,stimuli/dashed-rectangle.png,stimuli/blue-triangle.png,1,0,2,2,2,,,,,,,,,,,,,,,,,,,,,,,,,,,,,,,,,,,,,,,,,,,,,,,,,,,,,,,,,,,,,,,,,,,,,,,,,,,,,,,,,,,,,,,,,,,,,,,,,,,,,,,,,135.7780818939209,None,,,,,,,,,,,,,,,,,,,,,,,,,,,,,,,,,,,,,,,,,,,,,,,,,,,,,,,,,8008,001,06,2021_Nov_05_1513,task-switching-replication,2021.2.3,60.01276287662648,
1,4,untimed,06,standing,noswitch,incongruant,dashed,square,yellow,stimuli/dashed-rectangle.png,stimuli/yellow-square.png,2,0,3,3,3,,,,,0,0,0,0,,,,,,,,,,,,,,,,,,,,,,,,,,,,,,,,,,,,,,,,,,,,,,,,,,,,,,,,,,,,,,,,,,,,,,,,,,,,,,,,,,,,,,,1636143276.594663,135.97577285766602,None,136.94819688796997,None,1,0,0.9203970432281494,136.94819688796997,None,,,137.95647299289703,138.9781038761139,137.98958587646484,None,,,,,,,,,,,,,,,,,,,,,,,,,,,,,,,,,,,,,,,,,,,,,,,,,,,,,8008,001,06,2021_Nov_05_1513,task-switching-replication,2021.2.3,60.01276287662648,
1,4,untimed,06,standing,noswitch,incongruant,dashed,square,yellow,stimuli/dashed-rectangle.png,stimuli/yellow-square.png,2,0,3,3,3,,,,,,,,,,,,,,,,,,,,,,,,,,,,,,,,,,,,,,,,,,,,,,,,,,,,,,,,,,,,,,,,,,,,,,,,,,,,,,,,,,,,,,,,,,,,,,,,,,,,,,,,,142.99804282188416,None,,,,,,,,,,,,,,,,,,,,,,,,,,,,,,,,,,,,,,,,,,,,,,,,,,,,,,,,,8008,001,06,2021_Nov_05_1513,task-switching-replication,2021.2.3,60.01276287662648,
1,5,untimed,06,standing,switch,incongruant,solid,square,blue,stimuli/solid-rectangle.png,stimuli/blue-square.png,1,0,4,4,4,,,,,,,,,,,,,,,,,,,,,,,,,,,,,,,,,,,,,,,,,,,,,,,,,,,,,,,,,,,,,,,,,,,,,,,,,,,,,,,,,,,,,,,,,,,,,,,1636143283.5746553,143.19550204277039,None,144.1669409275055,None,1,1,0.6541290283203125,144.1669409275055,None,144.96453595161438,None,,,,,,,,,,,,,,,,,,,,,,,,,,,,,,,,,,,,,,,,,,,,,,,,,,,,,,,,,8008,001,06,2021_Nov_05_1513,task-switching-replication,2021.2.3,60.01276287662648,
1,6,untimed,06,standing,noswitch,congruant,solid,square,yellow,stimuli/solid-rectangle.png,stimuli/yellow-square.png,1,0,5,5,5,,,,,,,,,,,,,,,,,,,,,,,,,,,,,,,,,,,,,,,,,,,,,,,,,,,,,,,,,,,,,,,,,,,,,,,,,,,,,,,,,,,,,,,,,,,,,,,1636143285.57241,145.1943290233612,None,146.16599488258362,None,1,1,0.696113109588623,146.16599488258362,None,146.96246099472046,None,,,,,,,,,,,,,,,,,,,,,,,,,,,,,,,,,,,,,,,,,,,,,,,,,,,,,,,,,8008,001,06,2021_Nov_05_1513,task-switching-replication,2021.2.3,60.01276287662648,
1,7,untimed,06,standing,switch,incongruant,dashed,square,yellow,stimuli/dashed-rectangle.png,stimuli/yellow-square.png,2,0,6,6,6,,,,,,,,,,,,,,,,,,,,,,,,,,,,,,,,,,,,,,,,,,,,,,,,,,,,,,,,,,,,,,,,,,,,,,,,,,,,,,,,,,,,,,,,,,,,,,,1636143288.05436,147.19234585762024,None,148.16381287574768,None,2,1,1.1154930591583252,148.16381287574768,None,149.44356083869934,None,,,,,,,,,,,,,,,,,,,,,,,,,,,,,,,,,,,,,,,,,,,,,,,,,,,,,,,,,8008,001,06,2021_Nov_05_1513,task-switching-replication,2021.2.3,60.01276287662648,
1,8,untimed,06,standing,switch,congruant,solid,triangle,yellow,stimuli/solid-rectangle.png,stimuli/yellow-triangle.png,2,0,7,7,7,,,,,,,,,,,,,,,,,,,,,,,,,,,,,,,,,,,,,,,,,,,,,,,,,,,,,,,,,,,,,,,,,,,,,,,,,,,,,,,,,,,,,,,,,,,,,,,1636143289.9934087,149.67328095436096,None,150.64643692970276,None,2,1,0.6076700687408447,150.64643692970276,None,151.38333582878113,None,,,,,,,,,,,,,,,,,,,,,,,,,,,,,,,,,,,,,,,,,,,,,,,,,,,,,,,,,8008,001,06,2021_Nov_05_1513,task-switching-replication,2021.2.3,60.01276287662648,
1,9,untimed,06,standing,switch,incongruant,dashed,triangle,blue,stimuli/dashed-rectangle.png,stimuli/blue-triangle.png,1,0,8,8,8,,,,,,,,,,,,,,,,,,,,,,,,,,,,,,,,,,,,,,,,,,,,,,,,,,,,,,,,,,,,,,,,,,,,,,,,,,,,,,,,,,,,,,,,,,,,,,,1636143292.0516932,151.61358904838562,None,152.58494091033936,None,1,1,0.7467339038848877,152.58494091033936,None,153.44155192375183,None,,,,,,,,,,,,,,,,,,,,,,,,,,,,,,,,,,,,,,,,,,,,,,,,,,,,,,,,,8008,001,06,2021_Nov_05_1513,task-switching-replication,2021.2.3,60.01276287662648,
1,10,untimed,06,standing,noswitch,congruant,dashed,square,blue,stimuli/dashed-rectangle.png,stimuli/blue-square.png,1,0,9,9,9,,,,,,,,,,,,,,,,,,,,,,,,,,,,,,,,,,,,,,,,,,,,,,,,,,,,,,,,,,,,,,,,,,,,,,,,,,,,,,,,,,,,,,,,,,,,,,,1636143293.9302473,153.67144083976746,None,154.6436629295349,None,1,1,0.5373289585113525,154.6436629295349,None,155.32019782066345,None,,,,,,,,,,,,,,,,,,,,,,,,,,,,,,,,,,,,,,,,,,,,,,,,,,,,,,,,,8008,001,06,2021_Nov_05_1513,task-switching-replication,2021.2.3,60.01276287662648,
1,11,untimed,06,standing,switch,incongruant,solid,triangle,yellow,stimuli/solid-rectangle.png,stimuli/yellow-triangle.png,2,0,10,10,10,,,,,,,,,,,,,,,,,,,,,,,,,,,,,,,,,,,,,,,,,,,,,,,,,,,,,,,,,,,,,,,,,,,,,,,,,,,,,,,,,,,,,,,,,,,,,,,1636143295.8700733,155.54986882209778,None,156.5215358734131,None,2,1,0.5937521457672119,156.5215358734131,None,157.25941586494446,None,,,,,,,,,,,,,,,,,,,,,,,,,,,,,,,,,,,,,,,,,,,,,,,,,,,,,,,,,8008,001,06,2021_Nov_05_1513,task-switching-replication,2021.2.3,60.01276287662648,
1,12,untimed,06,standing,noswitch,congruant,solid,triangle,blue,stimuli/solid-rectangle.png,stimuli/blue-triangle.png,2,0,11,11,11,0,0,0,0,,,,,,,,,,,,,,,,,,,,,,,,,,,,,,,,,,,,,,,,,,,,,,,,,,,,,,,,,,,,,,,,,,,,,,,,,,,,,,,,,,,,,,,,,,,1636143298.1693285,157.48969888687134,None,158.46222400665283,None,1,0,0.9520318508148193,158.46222400665283,None,,,,,,,159.5312019586563,160.5525369644165,159.5635688304901,None,,,,,,,,,,,,,,,,,,,,,,,,,,,,,,,,,,,,,,,,,,,,,,,,,8008,001,06,2021_Nov_05_1513,task-switching-replication,2021.2.3,60.01276287662648,
1,12,untimed,06,standing,noswitch,congruant,solid,triangle,blue,stimuli/solid-rectangle.png,stimuli/blue-triangle.png,2,0,11,11,11,,,,,,,,,,,,,,,,,,,,,,,,,,,,,,,,,,,,,,,,,,,,,,,,,,,,,,,,,,,,,,,,,,,,,,,,,,,,,,,,,,,,,,,,,,,,,,,,,,,,,,,,,164.57492995262146,None,,,,,,,,,,,,,,,,,,,,,,,,,,,,,,,,,,,,,,,,,,,,,,,,,,,,,,,,,8008,001,06,2021_Nov_05_1513,task-switching-replication,2021.2.3,60.01276287662648,
,,,06,,,,,,,,,,,,,,,,,,,,,,,,,,,,,,,,,,,,,,,,,,,,,,,,,,,,,,,,,,,,,,,,,,,,,,,,,,,,,,,,,,,,,,,,,,,,,,,,,,,,,,,,,,,,,,,,,,,,,,,,,,,,,,,,164.77239084243774,None,2,3.167799949645996,164.77239084243774,None,,,,,,,,,,,,,,,,,,,,,,,,,,,,,,,,,,,,,,,,,,,8008,001,06,2021_Nov_05_1513,task-switching-replication,2021.2.3,60.01276287662648,
,,,06,,,,,,,,,,,,,,,,,,,,,,,,,,,,,,,,,,,,,,,,,,,,,,,,,,,,,,,,,,,,,,,,,,,,,,,,,,,,,,,,,,,,,,,,,,,,,,,,,,,,,,,,,,,,,,,,,,,,,,,,,,,,,,,,,,,,,,168.05175495147705,None,2,3.2571921348571777,168.05175495147705,None,,,,,,,,,,,,,,,,,,,,,,,,,,,,,,,,,,,,,8008,001,06,2021_Nov_05_1513,task-switching-replication,2021.2.3,60.01276287662648,
1,1,timed,06,standing,buffer,buffer,dashed,square,yellow,stimuli/dashed-rectangle.png,stimuli/yellow-square.png,2,,,,,,,,,,,,,0,0,0,0,,,,,,,,,,,,,,,,,,,,,,,,,,,,,,,,,,,,,,,,,,,,,,,,,,,,,,,,,,,,,,,,,,,,,,,,,,,,,,,,,,,1636143311.8806083,,,,,,,,,,173.27128100395203,None,,,,,,,,,,,,,,,,,,,,,171.43256402015686,None,172.42228603363037,None,2,1,0.7456178665161133,172.42228603363037,None,,,,,,,,,,,,,,,,,,,,,,,,,,,,8008,001,06,2021_Nov_05_1513,task-switching-replication,2021.2.3,60.01276287662648,
1,2,timed,06,standing,noswitch,incongruant,dashed,triangle,blue,stimuli/dashed-rectangle.png,stimuli/blue-triangle.png,1,,,,,,,,,,,,,0,1,1,1,,,,,,,,,,,,,,,,,,,,,,,,,,,,,,,,,,,,,,,,,,,,,,,,,,,,,,,,,,,,,,,,,,,,,,,,,,,,,,,,,,,1636143313.7161496,,,,,,,,,,175.1054618358612,None,,,,,,,,,,,,,,,,,,,,,173.50092101097107,None,174.48997688293457,None,1,1,0.47687792778015137,174.48997688293457,None,,,,,,,,,,,,,,,,,,,,,,,,,,,,8008,001,06,2021_Nov_05_1513,task-switching-replication,2021.2.3,60.01276287662648,
1,3,timed,06,standing,switch,congruant,solid,square,yellow,stimuli/solid-rectangle.png,stimuli/yellow-square.png,1,,,,,,,,,,,,,0,2,2,2,,,,,,,,,,,,,,,,,,,,,,,,,,,,,,,,,,,,,,,,,,,,,,,,,,,,,,,,,,,,,,,,,,,,,,,,,,,,,,,,,,,1636143316.137696,,,,,,,,,,177.5275218486786,None,,,,,,,,,,,,,,,,,,,,,175.33527302742004,None,176.32420587539673,None,1,1,1.0506901741027832,176.32420587539673,None,,,,,,,,,,,,,,,,,,,,,,,,,,,,8008,001,06,2021_Nov_05_1513,task-switching-replication,2021.2.3,60.01276287662648,
1,4,timed,06,standing,switch,congruant,dashed,square,blue,stimuli/dashed-rectangle.png,stimuli/blue-square.png,1,,,,,,,,,,,,,0,3,3,3,,,,,,,,,,,,,,,,,,,,,,,,,,,,,,,,,,,,,,,,,,,,,,,,,,,,,,,,,,,,,,,,,,,,,,,,,,,,,,,,,,,1636143318.0862417,,,,,,,,,,179.4763479232788,None,,,,,,,,,,,,,,,,,,,,,177.75669193267822,None,178.74633193016052,None,1,1,0.6284599304199219,178.74633193016052,None,,,,,,,,,,,,,,,,,,,,,,,,,,,,8008,001,06,2021_Nov_05_1513,task-switching-replication,2021.2.3,60.01276287662648,
1,5,timed,06,standing,noswitch,congruant,dashed,square,blue,stimuli/dashed-rectangle.png,stimuli/blue-square.png,1,,,,,,,,,,,,,0,4,4,4,,,,,,,,,,,,,,,,,,,,,,,,,,,,,,,,,,,,,,,,,,,,,,,,,,,,,,,,,,,,,,,,,,,,,,,,,,,,,,,,,,,1636143319.975955,,,,,,,,,,181.3659598827362,None,,,,,,,,,,,,,,,,,,,,,179.70577383041382,None,180.69525384902954,None,1,1,0.513613224029541,180.69525384902954,None,,,,,,,,,,,,,,,,,,,,,,,,,,,,8008,001,06,2021_Nov_05_1513,task-switching-replication,2021.2.3,60.01276287662648,
1,6,timed,06,standing,noswitch,congruant,dashed,triangle,blue,stimuli/dashed-rectangle.png,stimuli/blue-triangle.png,1,,,,,,,,,,,,,0,5,5,5,,,,,,,,,,,,,,,,,,,,,,,,,,,,,,,,,,,,,,,,,,,,,,,,,,,,,,,,,,,,,,,,,,,,,,,,,,,,,,,,,,,1636143321.8645194,,,,,,,,,,183.25465488433838,None,,,,,,,,,,,,,,,,,,,,,181.59547400474548,None,182.58412194252014,None,1,1,0.5588250160217285,182.58412194252014,None,,,,,,,,,,,,,,,,,,,,,,,,,,,,8008,001,06,2021_Nov_05_1513,task-switching-replication,2021.2.3,60.01276287662648,
1,7,timed,06,standing,switch,congruant,solid,square,yellow,stimuli/solid-rectangle.png,stimuli/yellow-square.png,1,,,,,,,,,,,,,0,6,6,6,,,,,,,,,,,,,,,,,,,,,,,,,,,,,,,,,,,,,,,,,,,,,,,,,,,,,,,,,,,,,,,,,,,,,,,,,,,,,,,,,,,1636143324.1681013,,,,,,,,,,185.55813193321228,None,,,,,,,,,,,,,,,,,,,,,183.48394203186035,None,184.47295689582825,None,1,1,0.9319651126861572,184.47295689582825,None,,,,,,,,,,,,,,,,,,,,,,,,,,,,8008,001,06,2021_Nov_05_1513,task-switching-replication,2021.2.3,60.01276287662648,
1,8,timed,06,standing,noswitch,incongruant,solid,triangle,blue,stimuli/solid-rectangle.png,stimuli/blue-triangle.png,2,,,,,,,,,,,,,0,7,7,7,,,,,,,,,,,,,,,,,,,,,,,,,,,,,,,,,,,,,,,,,,,,,,,,,,,,,,,,,,,,,,,,,,,,,,,,,,,,,,,,,,,1636143325.9408185,,,,,,,,,,187.32992792129517,None,,,,,,,,,,,,,,,,,,,,,185.7873899936676,None,186.77667903900146,None,2,1,0.4001169204711914,186.77667903900146,None,,,,,,,,,,,,,,,,,,,,,,,,,,,,8008,001,06,2021_Nov_05_1513,task-switching-replication,2021.2.3,60.01276287662648,
1,9,timed,06,standing,noswitch,incongruant,solid,square,blue,stimuli/solid-rectangle.png,stimuli/blue-square.png,1,,,,,,,,,,,,,0,8,8,8,,,,,,,,,,,,,,,,,,,,,,,,,,,,,,,,,,,,,,,,,,,,,,,,,,,,,,,,,,,,,,,,,,,,,,,,,,,,,,,,,,,1636143327.711904,,,,,,,,,,189.10117483139038,None,,,,,,,,,,,,,,,,,,,,,187.55968594551086,None,188.54920387268066,None,1,1,0.3936030864715576,188.54920387268066,None,,,,,,,,,,,,,,,,,,,,,,,,,,,,8008,001,06,2021_Nov_05_1513,task-switching-replication,2021.2.3,60.01276287662648,
1,10,timed,06,standing,noswitch,incongruant,solid,triangle,blue,stimuli/solid-rectangle.png,stimuli/blue-triangle.png,2,,,,,,,,,,,,,0,9,9,9,,,,,,,,,,,,,,,,,,,,,,,,,,,,,,,,,,,,,,,,,,,,,,,,,,,,,,,,,,,,,,,,,,,,,,,,,,,,,,,,,,,1636143329.4272556,,,,,,,,,,190.81634902954102,None,,,,,,,,,,,,,,,,,,,,,189.33079385757446,None,190.31992888450623,None,2,1,0.34308600425720215,190.31992888450623,None,,,,,,,,,,,,,,,,,,,,,,,,,,,,8008,001,06,2021_Nov_05_1513,task-switching-replication,2021.2.3,60.01276287662648,
1,11,timed,06,standing,switch,congruant,dashed,triangle,yellow,stimuli/dashed-rectangle.png,stimuli/yellow-triangle.png,2,,,,,,,,,,,,,0,10,10,10,,,,,0,0,0,0,,,,,,,,,,,,,,,,,,,,,,,,,,,,,,,,,,,,,,,,,,,,,,,,,,,,,,,,,,,,,,,,,,,,,,,,,,,1636143331.9672873,,,,,,,,,,,,193.32915103435516,194.34961891174316,193.36162090301514,None,,,,,,,,,,,,,,,,,191.0458128452301,None,192.03490090370178,None,1,0,1.1777610778808594,192.03490090370178,None,,,,,,,,,,,,,,,,,,,,,,,,,,,,8008,001,06,2021_Nov_05_1513,task-switching-replication,2021.2.3,60.01276287662648,
1,11,timed,06,standing,switch,congruant,dashed,triangle,yellow,stimuli/dashed-rectangle.png,stimuli/yellow-triangle.png,2,,,,,,,,,,,,,0,10,10,10,,,,,,,,,,,,,,,,,,,,,,,,,,,,,,,,,,,,,,,,,,,,,,,,,,,,,,,,,,,,,,,,,,,,,,,,,,,,,,,,,,,,,,,,,,,,,198.372004032135,None,,,,,,,,,,,,,,,,,,,,,,,,,,,,,,,,,,,,,,,,,,,,,,,,,,,,,,,,,8008,001,06,2021_Nov_05_1513,task-switching-replication,2021.2.3,60.01276287662648,
1,12,timed,06,standing,noswitch,congruant,dashed,triangle,yellow,stimuli/dashed-rectangle.png,stimuli/yellow-triangle.png,2,,,,,,,,,,,,,0,11,11,11,,,,,,,,,,,,,,,,,,,,,,,,,,,,,,,,,,,,,,,,,,,,,,,,,,,,,,,,,,,,,,,,,,,,,,,,,,,,,,,,,,,1636143338.723974,,,,,,,,,,200.11305594444275,None,,,,,,,,,,,,,,,,,,,,,198.56892585754395,None,199.5581820011139,None,2,1,0.43071889877319336,199.5581820011139,None,,,,,,,,,,,,,,,,,,,,,,,,,,,,8008,001,06,2021_Nov_05_1513,task-switching-replication,2021.2.3,60.01276287662648,
1,13,timed,06,standing,switch,incongruant,solid,square,blue,stimuli/solid-rectangle.png,stimuli/blue-square.png,1,,,,,,,,,,,,,0,12,12,12,,,,,,,,,,,,,,,,,,,,,,,,,,,,,,,,,,,,,,,,,,,,,,,,,,,,,,,,,,,,,,,,,,,,,,,,,,,,,,,,,,,1636143340.612091,,,,,,,,,,202.00194096565247,None,,,,,,,,,,,,,,,,,,,,,200.3426489830017,None,201.3317768573761,None,1,1,0.5513200759887695,201.3317768573761,None,,,,,,,,,,,,,,,,,,,,,,,,,,,,8008,001,06,2021_Nov_05_1513,task-switching-replication,2021.2.3,60.01276287662648,
1,14,timed,06,standing,noswitch,congruant,solid,square,yellow,stimuli/solid-rectangle.png,stimuli/yellow-square.png,1,,,,,,,,,,,,,0,13,13,13,,,,,,,,,,,,,,,,,,,,,,,,,,,,,,,,,,,,,,,,,,,,,,,,,,,,,,,,,,,,,,,,,,,,,,,,,,,,,,,,,,,1636143342.5009804,,,,,,,,,,203.89072585105896,None,,,,,,,,,,,,,,,,,,,,,202.231379032135,None,203.22014594078064,None,1,1,0.5436620712280273,203.22014594078064,None,,,,,,,,,,,,,,,,,,,,,,,,,,,,8008,001,06,2021_Nov_05_1513,task-switching-replication,2021.2.3,60.01276287662648,
1,15,timed,06,standing,switch,incongruant,dashed,square,yellow,stimuli/dashed-rectangle.png,stimuli/yellow-square.png,2,,,,,,,,,,,,,0,14,14,14,,,,,0,0,0,0,,,,,,,,,,,,,,,,,,,,,,,,,,,,,,,,,,,,,,,,,,,,,,,,,,,,,,,,,,,,,,,,,,,,,,,,,,,1636143344.5118597,,,,,,,,,,,,205.87357485294342,206.89531898498535,205.90718293190002,None,,,,,,,,,,,,,,,,,204.12065291404724,None,205.11225605010986,None,1,0,0.6593711376190186,205.11225605010986,None,,,,,,,,,,,,,,,,,,,,,,,,,,,,8008,001,06,2021_Nov_05_1513,task-switching-replication,2021.2.3,60.01276287662648,
1,15,timed,06,standing,switch,incongruant,dashed,square,yellow,stimuli/dashed-rectangle.png,stimuli/yellow-square.png,2,,,,,,,,,,,,,0,14,14,14,,,,,,,,,,,,,,,,,,,,,,,,,,,,,,,,,,,,,,,,,,,,,,,,,,,,,,,,,,,,,,,,,,,,,,,,,,,,,,,,,,,,,,,,,,,,,210.92012000083923,None,,,,,,,,,,,,,,,,,,,,,,,,,,,,,,,,,,,,,,,,,,,,,,,,,,,,,,,,,8008,001,06,2021_Nov_05_1513,task-switching-replication,2021.2.3,60.01276287662648,
1,16,timed,06,standing,noswitch,incongruant,dashed,triangle,blue,stimuli/dashed-rectangle.png,stimuli/blue-triangle.png,1,,,,,,,,,,,,,0,15,15,15,,,,,0,0,0,0,,,,,,,,,,,,,,,,,,,,,,,,,,,,,,,,,,,,,,,,,,,,,,,,,,,,,,,,,,,,,,,,,,,,,,,,,,,1636143351.6877737,,,,,,,,,,,,213.04960596561432,214.0701458454132,213.08209586143494,None,,,,,,,,,,,,,,,,,211.11710000038147,None,212.10676503181458,None,2,0,0.8313000202178955,212.10676503181458,None,,,,,,,,,,,,,,,,,,,,,,,,,,,,8008,001,06,2021_Nov_05_1513,task-switching-replication,2021.2.3,60.01276287662648,
1,16,timed,06,standing,noswitch,incongruant,dashed,triangle,blue,stimuli/dashed-rectangle.png,stimuli/blue-triangle.png,1,,,,,,,,,,,,,0,15,15,15,,,,,,,,,,,,,,,,,,,,,,,,,,,,,,,,,,,,,,,,,,,,,,,,,,,,,,,,,,,,,,,,,,,,,,,,,,,,,,,,,,,,,,,,,,,,,218.0906958580017,None,,,,,,,,,,,,,,,,,,,,,,,,,,,,,,,,,,,,,,,,,,,,,,,,,,,,,,,,,8008,001,06,2021_Nov_05_1513,task-switching-replication,2021.2.3,60.01276287662648,
1,17,timed,06,standing,switch,incongruant,solid,triangle,yellow,stimuli/solid-rectangle.png,stimuli/yellow-triangle.png,2,,,,,,,,,,,,,0,16,16,16,,,,,,,,,,,,,,,,,,,,,,,,,,,,,,,,,,,,,,,,,,,,,,,,,,,,,,,,,,,,,,,,,,,,,,,,,,,,,,,,,,,1636143358.794376,,,,,,,,,,220.18434286117554,None,,,,,,,,,,,,,,,,,,,,,218.28759002685547,None,219.27686882019043,None,2,1,0.7727539539337158,219.27686882019043,None,,,,,,,,,,,,,,,,,,,,,,,,,,,,8008,001,06,2021_Nov_05_1513,task-switching-replication,2021.2.3,60.01276287662648,
1,18,timed,06,standing,noswitch,congruant,solid,triangle,blue,stimuli/solid-rectangle.png,stimuli/blue-triangle.png,2,,,,,,,,,,,,,0,17,17,17,,,,,,,,,,,,,,,,,,,,,,,,,,,,,,,,,,,,,,,,,,,,,,,,,,,,,,,,,,,,,,,,,,,,,,,,,,,,,,,,,,,1636143360.6241345,,,,,,,,,,222.0139889717102,None,,,,,,,,,,,,,,,,,,,,,220.41348385810852,None,221.402606010437,None,2,1,0.4890589714050293,221.402606010437,None,,,,,,,,,,,,,,,,,,,,,,,,,,,,8008,001,06,2021_Nov_05_1513,task-switching-replication,2021.2.3,60.01276287662648,
1,19,timed,06,standing,switch,incongruant,dashed,square,blue,stimuli/dashed-rectangle.png,stimuli/blue-square.png,1,,,,,,,,,,,,,0,18,18,18,,,,,,,,,,,,,,,,,,,,,,,,,,,,,,,,,,,,,,,,,,,,,,,,,,,,,,,,,,,,,,,,,,,,,,,,,,,,,,,,,,,1636143362.5166423,,,,,,,,,,223.90606689453125,None,,,,,,,,,,,,,,,,,,,,,222.24349904060364,None,223.23340702056885,None,1,1,0.5439488887786865,223.23340702056885,None,,,,,,,,,,,,,,,,,,,,,,,,,,,,8008,001,06,2021_Nov_05_1513,task-switching-replication,2021.2.3,60.01276287662648,
1,20,timed,06,standing,switch,congruant,solid,square,blue,stimuli/solid-rectangle.png,stimuli/blue-square.png,1,,,,,,,,,,,,,0,19,19,19,,,,,,,,,,,,,,,,,,,,,,,,,,,,,,,,,,,,,,,,,,,,,,,,,,,,,,,,,,,,,,,,,,,,,,,,,,,,,,,,,,,1636143364.4054255,,,,,,,,,,225.79549193382263,None,,,,,,,,,,,,,,,,,,,,,224.1355860233307,None,225.12498903274536,None,1,1,0.556555986404419,225.12498903274536,None,,,,,,,,,,,,,,,,,,,,,,,,,,,,8008,001,06,2021_Nov_05_1513,task-switching-replication,2021.2.3,60.01276287662648,
1,21,timed,06,standing,switch,incongruant,dashed,square,yellow,stimuli/dashed-rectangle.png,stimuli/yellow-square.png,2,,,,,,,,,,,,,0,20,20,20,,,,,0,0,0,0,,,,,,,,,,,,,,,,,,,,,,,,,,,,,,,,,,,,,,,,,,,,,,,,,,,,,,,,,,,,,,,,,,,,,,,,,,,1636143366.4723935,,,,,,,,,,,,227.8341349363327,228.8570568561554,227.86780405044556,None,,,,,,,,,,,,,,,,,226.02496981620789,None,227.014142036438,None,1,0,0.7423520088195801,227.014142036438,None,,,,,,,,,,,,,,,,,,,,,,,,,,,,8008,001,06,2021_Nov_05_1513,task-switching-replication,2021.2.3,60.01276287662648,
1,21,timed,06,standing,switch,incongruant,dashed,square,yellow,stimuli/dashed-rectangle.png,stimuli/yellow-square.png,2,,,,,,,,,,,,,0,20,20,20,,,,,,,,,,,,,,,,,,,,,,,,,,,,,,,,,,,,,,,,,,,,,,,,,,,,,,,,,,,,,,,,,,,,,,,,,,,,,,,,,,,,,,,,,,,,,232.87799191474915,None,,,,,,,,,,,,,,,,,,,,,,,,,,,,,,,,,,,,,,,,,,,,,,,,,,,,,,,,,8008,001,06,2021_Nov_05_1513,task-switching-replication,2021.2.3,60.01276287662648,
1,22,timed,06,standing,switch,congruant,solid,triangle,yellow,stimuli/solid-rectangle.png,stimuli/yellow-triangle.png,2,,,,,,,,,,,,,0,21,21,21,,,,,,,,,,,,,,,,,,,,,,,,,,,,,,,,,,,,,,,,,,,,,,,,,,,,,,,,,,,,,,,,,,,,,,,,,,,,,,,,,,,1636143373.5280495,,,,,,,,,,234.91735100746155,None,,,,,,,,,,,,,,,,,,,,,233.07488489151,None,234.06394791603088,None,2,1,0.7248311042785645,234.06394791603088,None,,,,,,,,,,,,,,,,,,,,,,,,,,,,8008,001,06,2021_Nov_05_1513,task-switching-replication,2021.2.3,60.01276287662648,
1,23,timed,06,standing,noswitch,congruant,solid,triangle,yellow,stimuli/solid-rectangle.png,stimuli/yellow-triangle.png,2,,,,,,,,,,,,,0,22,22,22,,,,,,,,,,,,,,,,,,,,,,,,,,,,,,,,,,,,,,,,,,,,,,,,,,,,,,,,,,,,,,,,,,,,,,,,,,,,,,,,,,,1636143375.2984505,,,,,,,,,,236.68837690353394,None,,,,,,,,,,,,,,,,,,,,,235.14633703231812,None,236.13624382019043,None,2,1,0.41529297828674316,236.13624382019043,None,,,,,,,,,,,,,,,,,,,,,,,,,,,,8008,001,06,2021_Nov_05_1513,task-switching-replication,2021.2.3,60.01276287662648,
1,24,timed,06,standing,switch,congruant,dashed,triangle,yellow,stimuli/dashed-rectangle.png,stimuli/yellow-triangle.png,2,,,,,,,,,,,,,0,23,23,23,,,,,,,,,,,,,,,,,,,,,,,,,,,,,,,,,,,,,,,,,,,,,,,,,,,,,,,,,,,,,,,,,,,,,,,,,,,,,,,,,,,1636143377.0698493,,,,,,,,,,238.45989298820496,None,,,,,,,,,,,,,,,,,,,,,236.9177680015564,None,237.9071559906006,None,2,1,0.42351198196411133,237.9071559906006,None,,,,,,,,,,,,,,,,,,,,,,,,,,,,8008,001,06,2021_Nov_05_1513,task-switching-replication,2021.2.3,60.01276287662648,
1,1,experiment,06,standing,buffer,buffer,dashed,triangle,blue,stimuli/dashed-rectangle.png,stimuli/blue-triangle.png,1,,,,,,,,,,,,,,,,,,,,,,,,,0,0,0,0,0,0,0,0,0,0,0,0,,,,,0,0,0,0,238.70256185531616,None,2,3.3670520782470703,238.70256185531616,None,,,,,,,,,,,,,,,,,,,,,,,,,,,,,,,,,,,,,,,,,,,,,,,,,1636143390.78819,,,,,,,,,,,,252.1499809026718,253.1727750301361,252.18418288230896,None,,,,,,,,,,,,,,,,,,,,,,,,,,242.19941592216492,None,2,5.041233062744141,242.19941592216492,None,247.38404083251953,None,2,2.8554399013519287,247.38404083251953,None,250.39937090873718,None,251.38826704025269,None,2,0,0.6582610607147217,251.38826704025269,None,,,,,,,8008,001,06,2021_Nov_05_1513,task-switching-replication,2021.2.3,60.01276287662648,
1,1,experiment,06,standing,buffer,buffer,dashed,triangle,blue,stimuli/dashed-rectangle.png,stimuli/blue-triangle.png,1,,,,,,,,,,,,,,,,,,,,,,,,,0,0,0,0,0,0,0,0,0,0,0,0,,,,,,,,,,,,,,,,,,,,,,,,,,,,,,,,,,,,,,,,,,,,,,,,,,,,,,,,,,,,,,,,,,,,,,,,,257.1922628879547,None,,,,,,,,,,,,,,,,,,,,,,,,,,,,,,,,,,,,,,,,,,,,,,,,,,,,,,,,,8008,001,06,2021_Nov_05_1513,task-switching-replication,2021.2.3,60.01276287662648,
1,2,experiment,06,standing,noswitch,incongruant,dashed,square,yellow,stimuli/dashed-rectangle.png,stimuli/yellow-square.png,2,,,,,,,,,,,,,,,,,,,,,,,,,0,0,0,0,0,0,0,0,0,1,1,1,,,,,,,,,,,,,,,,,,,,,,,,,,,,,,,,,,,,,,,,,,,,,,,,,,,,,,,,,,,,,,,1636143397.6004074,,,,,,,,,,258.9904839992523,None,,,,,,,,,,,,,,,,,,,,,,,,,,,,,,,,,,,,,,,,,,257.3895390033722,None,258.3791618347168,None,2,1,0.508310079574585,258.3791618347168,None,,,,,,,8008,001,06,2021_Nov_05_1513,task-switching-replication,2021.2.3,60.01276287662648,
1,3,experiment,06,standing,switch,congruant,solid,triangle,blue,stimuli/solid-rectangle.png,stimuli/blue-triangle.png,2,,,,,,,,,,,,,,,,,,,,,,,,,0,0,0,0,0,0,0,0,0,2,2,2,,,,,,,,,,,,,,,,,,,,,,,,,,,,,,,,,,,,,,,,,,,,,,,,,,,,,,,,,,,,,,,1636143399.4894712,,,,,,,,,,260.8794569969177,None,,,,,,,,,,,,,,,,,,,,,,,,,,,,,,,,,,,,,,,,,,259.21984481811523,None,260.20882296562195,None,2,1,0.5375680923461914,260.20882296562195,None,,,,,,,8008,001,06,2021_Nov_05_1513,task-switching-replication,2021.2.3,60.01276287662648,
1,4,experiment,06,standing,switch,incongruant,dashed,triangle,blue,stimuli/dashed-rectangle.png,stimuli/blue-triangle.png,1,,,,,,,,,,,,,,,,,,,,,,,,,0,0,0,0,0,0,0,0,0,3,3,3,,,,,0,0,0,0,,,,,,,,,,,,,,,,,,,,,,,,,,,,,,,,,,,,,,,,,,,,,,,,,,,,,,,1636143401.3787305,,,,,,,,,,,,262.74054205417633,263.76327204704285,262.77406787872314,None,,,,,,,,,,,,,,,,,,,,,,,,,,,,,,,,,,,,,,261.10878801345825,None,262.0979449748993,None,2,0,0.5314550399780273,262.0979449748993,None,,,,,,,8008,001,06,2021_Nov_05_1513,task-switching-replication,2021.2.3,60.01276287662648,
1,4,experiment,06,standing,switch,incongruant,dashed,triangle,blue,stimuli/dashed-rectangle.png,stimuli/blue-triangle.png,1,,,,,,,,,,,,,,,,,,,,,,,,,0,0,0,0,0,0,0,0,0,3,3,3,,,,,,,,,,,,,,,,,,,,,,,,,,,,,,,,,,,,,,,,,,,,,,,,,,,,,,,,,,,,,,,,,,,,,,,,,267.7852919101715,None,,,,,,,,,,,,,,,,,,,,,,,,,,,,,,,,,,,,,,,,,,,,,,,,,,,,,,,,,8008,001,06,2021_Nov_05_1513,task-switching-replication,2021.2.3,60.01276287662648,
1,5,experiment,06,standing,noswitch,congruant,dashed,square,blue,stimuli/dashed-rectangle.png,stimuli/blue-square.png,1,,,,,,,,,,,,,,,,,,,,,,,,,0,0,0,0,0,0,0,0,0,4,4,4,,,,,,,,,,,,,,,,,,,,,,,,,,,,,,,,,,,,,,,,,,,,,,,,,,,,,,,,,,,,,,,1636143408.4290597,,,,,,,,,,269.81887197494507,None,,,,,,,,,,,,,,,,,,,,,,,,,,,,,,,,,,,,,,,,,,267.9821310043335,None,268.97089290618896,None,1,1,0.7360799312591553,268.97089290618896,None,,,,,,,8008,001,06,2021_Nov_05_1513,task-switching-replication,2021.2.3,60.01276287662648,
1,6,experiment,06,standing,switch,incongruant,solid,triangle,yellow,stimuli/solid-rectangle.png,stimuli/yellow-triangle.png,2,,,,,,,,,,,,,,,,,,,,,,,,,0,0,0,0,0,0,0,0,0,5,5,5,,,,,,,,,,,,,,,,,,,,,,,,,,,,,,,,,,,,,,,,,,,,,,,,,,,,,,,,,,,,,,,1636143410.3170319,,,,,,,,,,271.7067918777466,None,,,,,,,,,,,,,,,,,,,,,,,,,,,,,,,,,,,,,,,,,,270.04792404174805,None,271.0367510318756,None,2,1,0.5532059669494629,271.0367510318756,None,,,,,,,8008,001,06,2021_Nov_05_1513,task-switching-replication,2021.2.3,60.01276287662648,
1,7,experiment,06,standing,noswitch,incongruant,solid,square,yellow,stimuli/solid-rectangle.png,stimuli/yellow-square.png,1,,,,,,,,,,,,,,,,,,,,,,,,,0,0,0,0,0,0,0,0,0,6,6,6,,,,,,,,,,,,,,,,,,,,,,,,,,,,,,,,,,,,,,,,,,,,,,,,,,,,,,,,,,,,,,,1636143412.089774,,,,,,,,,,273.47913694381714,None,,,,,,,,,,,,,,,,,,,,,,,,,,,,,,,,,,,,,,,,,,271.9358379840851,None,272.92416191101074,None,1,1,0.40131497383117676,272.92416191101074,None,,,,,,,8008,001,06,2021_Nov_05_1513,task-switching-replication,2021.2.3,60.01276287662648,
1,8,experiment,06,standing,noswitch,incongruant,solid,triangle,blue,stimuli/solid-rectangle.png,stimuli/blue-triangle.png,2,,,,,,,,,,,,,,,,,,,,,,,,,0,0,0,0,0,0,0,0,0,7,7,7,,,,,,,,,,,,,,,,,,,,,,,,,,,,,,,,,,,,,,,,,,,,,,,,,,,,,,,,,,,,,,,1636143413.8005176,,,,,,,,,,275.18977904319763,None,,,,,,,,,,,,,,,,,,,,,,,,,,,,,,,,,,,,,,,,,,273.7085750102997,None,274.6974530220032,None,2,1,0.354050874710083,274.6974530220032,None,,,,,,,8008,001,06,2021_Nov_05_1513,task-switching-replication,2021.2.3,60.01276287662648,
1,9,experiment,06,standing,noswitch,incongruant,solid,square,blue,stimuli/solid-rectangle.png,stimuli/blue-square.png,1,,,,,,,,,,,,,,,,,,,,,,,,,0,0,0,0,0,0,0,0,0,8,8,8,,,,,,,,,,,,,,,,,,,,,,,,,,,,,,,,,,,,,,,,,,,,,,,,,,,,,,,,,,,,,,,1636143415.6920002,,,,,,,,,,277.0823218822479,None,,,,,,,,,,,,,,,,,,,,,,,,,,,,,,,,,,,,,,,,,,275.41943192481995,None,276.4086170196533,None,1,1,0.5193960666656494,276.4086170196533,None,,,,,,,8008,001,06,2021_Nov_05_1513,task-switching-replication,2021.2.3,60.01276287662648,
1,10,experiment,06,standing,switch,incongruant,dashed,square,yellow,stimuli/dashed-rectangle.png,stimuli/yellow-square.png,2,,,,,,,,,,,,,,,,,,,,,,,,,0,0,0,0,0,0,0,0,0,9,9,9,,,,,0,0,0,0,,,,,,,,,,,,,,,,,,,,,,,,,,,,,,,,,,,,,,,,,,,,,,,,,,,,,,,1636143417.820966,,,,,,,,,,,,279.1827529668808,280.20494985580444,279.2163348197937,None,,,,,,,,,,,,,,,,,,,,,,,,,,,,,,,,,,,,,,277.31226897239685,None,278.30258989334106,None,1,0,0.7727470397949219,278.30258989334106,None,,,,,,,8008,001,06,2021_Nov_05_1513,task-switching-replication,2021.2.3,60.01276287662648,
1,10,experiment,06,standing,switch,incongruant,dashed,square,yellow,stimuli/dashed-rectangle.png,stimuli/yellow-square.png,2,,,,,,,,,,,,,,,,,,,,,,,,,0,0,0,0,0,0,0,0,0,9,9,9,,,,,,,,,,,,,,,,,,,,,,,,,,,,,,,,,,,,,,,,,,,,,,,,,,,,,,,,,,,,,,,,,,,,,,,,,284.2275218963623,None,,,,,,,,,,,,,,,,,,,,,,,,,,,,,,,,,,,,,,,,,,,,,,,,,,,,,,,,,8008,001,06,2021_Nov_05_1513,task-switching-replication,2021.2.3,60.01276287662648,
1,11,experiment,06,standing,switch,congruant,solid,triangle,yellow,stimuli/solid-rectangle.png,stimuli/yellow-triangle.png,2,,,,,,,,,,,,,,,,,,,,,,,,,0,0,0,0,0,0,0,0,0,10,10,10,,,,,,,,,,,,,,,,,,,,,,,,,,,,,,,,,,,,,,,,,,,,,,,,,,,,,,,,,,,,,,,1636143424.8158011,,,,,,,,,,286.20514392852783,None,,,,,,,,,,,,,,,,,,,,,,,,,,,,,,,,,,,,,,,,,,284.42425894737244,None,285.41392993927,None,2,1,0.637537956237793,285.41392993927,None,,,,,,,8008,001,06,2021_Nov_05_1513,task-switching-replication,2021.2.3,60.01276287662648,
1,12,experiment,06,standing,switch,congruant,dashed,square,yellow,stimuli/dashed-rectangle.png,stimuli/yellow-square.png,2,,,,,,,,,,,,,,,,,,,,,,,,,0,0,0,0,0,0,0,0,0,11,11,11,,,,,,,,,,,,,,,,,,,,,,,,,,,,,,,,,,,,,,,,,,,,,,,,,,,,,,,,,,,,,,,1636143427.3568046,,,,,,,,,,288.74685287475586,None,,,,,,,,,,,,,,,,,,,,,,,,,,,,,,,,,,,,,,,,,,286.43523693084717,None,287.42477083206177,None,2,1,1.185546875,287.42477083206177,None,,,,,,,8008,001,06,2021_Nov_05_1513,task-switching-replication,2021.2.3,60.01276287662648,
1,13,experiment,06,standing,noswitch,incongruant,dashed,triangle,blue,stimuli/dashed-rectangle.png,stimuli/blue-triangle.png,1,,,,,,,,,,,,,,,,,,,,,,,,,0,0,0,0,0,0,0,0,0,12,12,12,,,,,,,,,,,,,,,,,,,,,,,,,,,,,,,,,,,,,,,,,,,,,,,,,,,,,,,,,,,,,,,1636143429.637918,,,,,,,,,,291.0271499156952,None,,,,,,,,,,,,,,,,,,,,,,,,,,,,,,,,,,,,,,,,,,288.9763469696045,None,289.97150802612305,None,1,1,0.9318530559539795,289.97150802612305,None,,,,,,,8008,001,06,2021_Nov_05_1513,task-switching-replication,2021.2.3,60.01276287662648,
1,14,experiment,06,standing,switch,congruant,solid,square,yellow,stimuli/solid-rectangle.png,stimuli/yellow-square.png,1,,,,,,,,,,,,,,,,,,,,,,,,,0,0,0,0,0,0,0,0,0,13,13,13,0,0,0,0,,,,,,,,,,,,,,,,,,,,,,,,,,,,,,,,,,,,,,,,,,,,,,,,,,,,,,,,,,,1636143432.0642123,,,,,,,,,,,,,,,,293.42608296871185,294.44755697250366,293.4581489562988,None,,,,,,,,,,,,,,,,,,,,,,,,,,,,,,,,,,291.2574739456177,None,292.2472789287567,None,2,0,1.0528538227081299,292.2472789287567,None,,,,,,,8008,001,06,2021_Nov_05_1513,task-switching-replication,2021.2.3,60.01276287662648,
1,14,experiment,06,standing,switch,congruant,solid,square,yellow,stimuli/solid-rectangle.png,stimuli/yellow-square.png,1,,,,,,,,,,,,,,,,,,,,,,,,,0,0,0,0,0,0,0,0,0,13,13,13,,,,,,,,,,,,,,,,,,,,,,,,,,,,,,,,,,,,,,,,,,,,,,,,,,,,,,,,,,,,,,,,,,,,,,,,,298.46870493888855,None,,,,,,,,,,,,,,,,,,,,,,,,,,,,,,,,,,,,,,,,,,,,,,,,,,,,,,,,,8008,001,06,2021_Nov_05_1513,task-switching-replication,2021.2.3,60.01276287662648,
1,15,experiment,06,standing,noswitch,congruant,solid,square,yellow,stimuli/solid-rectangle.png,stimuli/yellow-square.png,1,,,,,,,,,,,,,,,,,,,,,,,,,0,0,0,0,0,0,0,0,0,14,14,14,,,,,,,,,,,,,,,,,,,,,,,,,,,,,,,,,,,,,,,,,,,,,,,,,,,,,,,,,,,,,,,1636143439.4125507,,,,,,,,,,300.80183601379395,None,,,,,,,,,,,,,,,,,,,,,,,,,,,,,,,,,,,,,,,,,,298.6657168865204,None,299.65687704086304,None,1,1,1.0063560009002686,299.65687704086304,None,,,,,,,8008,001,06,2021_Nov_05_1513,task-switching-replication,2021.2.3,60.01276287662648,
1,16,experiment,06,standing,noswitch,congruant,solid,square,blue,stimuli/solid-rectangle.png,stimuli/blue-square.png,1,,,,,,,,,,,,,,,,,,,,,,,,,0,0,0,0,0,0,0,0,0,15,15,15,,,,,,,,,,,,,,,,,,,,,,,,,,,,,,,,,,,,,,,,,,,,,,,,,,,,,,,,,,,,,,,1636143441.1869185,,,,,,,,,,302.5770809650421,None,,,,,,,,,,,,,,,,,,,,,,,,,,,,,,,,,,,,,,,,,,301.03129291534424,None,302.0245258808136,None,1,1,0.39554405212402344,302.0245258808136,None,,,,,,,8008,001,06,2021_Nov_05_1513,task-switching-replication,2021.2.3,60.01276287662648,
1,17,experiment,06,standing,switch,congruant,dashed,square,blue,stimuli/dashed-rectangle.png,stimuli/blue-square.png,1,,,,,,,,,,,,,,,,,,,,,,,,,0,0,0,0,0,0,0,0,0,16,16,16,,,,,0,0,0,0,,,,,,,,,,,,,,,,,,,,,,,,,,,,,,,,,,,,,,,,,,,,,,,,,,,,,,,1636143443.9646058,,,,,,,,,,,,305.3356209278106,306.35848689079285,305.3674809932709,None,,,,,,,,,,,,,,,,,,,,,,,,,,,,,,,,,,,,,,302.80636501312256,None,303.7956509590149,None,None,0,,303.7956509590149,None,,,,,,,8008,001,06,2021_Nov_05_1513,task-switching-replication,2021.2.3,60.01276287662648,
1,17,experiment,06,standing,switch,congruant,dashed,square,blue,stimuli/dashed-rectangle.png,stimuli/blue-square.png,1,,,,,,,,,,,,,,,,,,,,,,,,,0,0,0,0,0,0,0,0,0,16,16,16,,,,,,,,,,,,,,,,,,,,,,,,,,,,,,,,,,,,,,,,,,,,,,,,,,,,,,,,,,,,,,,,,,,,,,,,,310.37980484962463,None,,,,,,,,,,,,,,,,,,,,,,,,,,,,,,,,,,,,,,,,,,,,,,,,,,,,,,,,,8008,001,06,2021_Nov_05_1513,task-switching-replication,2021.2.3,60.01276287662648,
1,18,experiment,06,standing,noswitch,congruant,dashed,square,blue,stimuli/dashed-rectangle.png,stimuli/blue-square.png,1,,,,,,,,,,,,,,,,,,,,,,,,,0,0,0,0,0,0,0,0,0,17,17,17,,,,,,,,,,,,,,,,,,,,,,,,,,,,,,,,,,,,,,,,,,,,,,,,,,,,,,,,,,,,,,,1636143450.9051144,,,,,,,,,,312.2950909137726,None,,,,,,,,,,,,,,,,,,,,,,,,,,,,,,,,,,,,,,,,,,310.5767538547516,None,311.56550192832947,None,1,1,0.577455997467041,311.56550192832947,None,,,,,,,8008,001,06,2021_Nov_05_1513,task-switching-replication,2021.2.3,60.01276287662648,
1,19,experiment,06,standing,noswitch,incongruant,dashed,triangle,yellow,stimuli/dashed-rectangle.png,stimuli/yellow-triangle.png,2,,,,,,,,,,,,,,,,,,,,,,,,,0,0,0,0,0,0,0,0,0,18,18,18,,,,,,,,,,,,,,,,,,,,,,,,,,,,,,,,,,,,,,,,,,,,,,,,,,,,,,,,,,,,,,,1636143452.7942848,,,,,,,,,,314.1842129230499,None,,,,,,,,,,,,,,,,,,,,,,,,,,,,,,,,,,,,,,,,,,312.52435183525085,None,313.51376700401306,None,2,1,0.5551609992980957,313.51376700401306,None,,,,,,,8008,001,06,2021_Nov_05_1513,task-switching-replication,2021.2.3,60.01276287662648,
1,20,experiment,06,standing,switch,congruant,solid,triangle,blue,stimuli/solid-rectangle.png,stimuli/blue-triangle.png,2,,,,,,,,,,,,,,,,,,,,,,,,,0,0,0,0,0,0,0,0,0,19,19,19,0,0,0,0,,,,,,,,,,,,,,,,,,,,,,,,,,,,,,,,,,,,,,,,,,,,,,,,,,,,,,,,,,,1636143455.1612089,,,,,,,,,,,,,,,,316.589884018898,317.64137983322144,316.61797189712524,None,,,,,,,,,,,,,,,,,,,,,,,,,,,,,,,,,,314.41433095932007,None,315.40324091911316,None,1,0,0.9987249374389648,315.40324091911316,None,,,,,,,8008,001,06,2021_Nov_05_1513,task-switching-replication,2021.2.3,60.01276287662648,
1,20,experiment,06,standing,switch,congruant,solid,triangle,blue,stimuli/solid-rectangle.png,stimuli/blue-triangle.png,2,,,,,,,,,,,,,,,,,,,,,,,,,0,0,0,0,0,0,0,0,0,19,19,19,,,,,,,,,,,,,,,,,,,,,,,,,,,,,,,,,,,,,,,,,,,,,,,,,,,,,,,,,,,,,,,,,,,,,,,,,321.62886786460876,None,,,,,,,,,,,,,,,,,,,,,,,,,,,,,,,,,,,,,,,,,,,,,,,,,,,,,,,,,8008,001,06,2021_Nov_05_1513,task-switching-replication,2021.2.3,60.01276287662648,
1,21,experiment,06,standing,noswitch,congruant,solid,triangle,yellow,stimuli/solid-rectangle.png,stimuli/yellow-triangle.png,2,,,,,,,,,,,,,,,,,,,,,,,,,0,0,0,0,0,0,0,0,0,20,20,20,,,,,,,,,,,,,,,,,,,,,,,,,,,,,,,,,,,,,,,,,,,,,,,,,,,,,,,,,,,,,,,1636143462.0404267,,,,,,,,,,323.4295480251312,None,,,,,,,,,,,,,,,,,,,,,,,,,,,,,,,,,,,,,,,,,,321.82564187049866,None,322.81528401374817,None,2,1,0.4809260368347168,322.81528401374817,None,,,,,,,8008,001,06,2021_Nov_05_1513,task-switching-replication,2021.2.3,60.01276287662648,
1,22,experiment,06,standing,switch,incongruant,dashed,triangle,blue,stimuli/dashed-rectangle.png,stimuli/blue-triangle.png,1,,,,,,,,,,,,,,,,,,,,,,,,,0,0,0,0,0,0,0,0,0,21,21,21,,,,,,,,,,,,,,,,,,,,,,,,,,,,,,,,,,,,,,,,,,,,,,,,,,,,,,,,,,,,,,,1636143464.2310095,,,,,,,,,,325.62029099464417,None,,,,,,,,,,,,,,,,,,,,,,,,,,,,,,,,,,,,,,,,,,323.65894889831543,None,324.6477348804474,None,1,1,0.8435189723968506,324.6477348804474,None,,,,,,,8008,001,06,2021_Nov_05_1513,task-switching-replication,2021.2.3,60.01276287662648,
1,23,experiment,06,standing,noswitch,congruant,dashed,triangle,blue,stimuli/dashed-rectangle.png,stimuli/blue-triangle.png,1,,,,,,,,,,,,,,,,,,,,,,,,,0,0,0,0,0,0,0,0,0,22,22,22,,,,,,,,,,,,,,,,,,,,,,,,,,,,,,,,,,,,,,,,,,,,,,,,,,,,,,,,,,,,,,,1636143466.120377,,,,,,,,,,327.5105559825897,None,,,,,,,,,,,,,,,,,,,,,,,,,,,,,,,,,,,,,,,,,,325.8503019809723,None,326.8399770259857,None,1,1,0.5569329261779785,326.8399770259857,None,,,,,,,8008,001,06,2021_Nov_05_1513,task-switching-replication,2021.2.3,60.01276287662648,
1,24,experiment,06,standing,noswitch,congruant,dashed,triangle,blue,stimuli/dashed-rectangle.png,stimuli/blue-triangle.png,1,,,,,,,,,,,,,,,,,,,,,,,,,0,0,0,0,0,0,0,0,0,23,23,23,,,,,,,,,,,,,,,,,,,,,,,,,,,,,,,,,,,,,,,,,,,,,,,,,,,,,,,,,,,,,,,1636143467.8325334,,,,,,,,,,329.22267484664917,None,,,,,,,,,,,,,,,,,,,,,,,,,,,,,,,,,,,,,,,,,,327.740131855011,None,328.7296278476715,None,1,1,0.37926697731018066,328.7296278476715,None,,,,,,,8008,001,06,2021_Nov_05_1513,task-switching-replication,2021.2.3,60.01276287662648,
1,25,experiment,06,standing,switch,congruant,solid,square,yellow,stimuli/solid-rectangle.png,stimuli/yellow-square.png,1,,,,,,,,,,,,,,,,,,,,,,,,,0,0,0,0,0,0,0,0,0,24,24,24,,,,,,,,,,,,,,,,,,,,,,,,,,,,,,,,,,,,,,,,,,,,,,,,,,,,,,,,,,,,,,,1636143469.9002404,,,,,,,,,,331.29019594192505,None,,,,,,,,,,,,,,,,,,,,,,,,,,,,,,,,,,,,,,,,,,329.45223784446716,None,330.44219398498535,None,1,1,0.7247428894042969,330.44219398498535,None,,,,,,,8008,001,06,2021_Nov_05_1513,task-switching-replication,2021.2.3,60.01276287662648,
1,26,experiment,06,standing,switch,incongruant,dashed,triangle,yellow,stimuli/dashed-rectangle.png,stimuli/yellow-triangle.png,2,,,,,,,,,,,,,,,,,,,,,,,,,0,0,0,0,0,0,0,0,0,25,25,25,,,,,0,0,0,0,,,,,,,,,,,,,,,,,,,,,,,,,,,,,,,,,,,,,,,,,,,,,,,,,,,,,,,1636143472.205412,,,,,,,,,,,,333.5671828985214,334.58979392051697,333.6006510257721,None,,,,,,,,,,,,,,,,,,,,,,,,,,,,,,,,,,,,,,331.5200889110565,None,332.50998401641846,None,1,0,0.9469258785247803,332.50998401641846,None,,,,,,,8008,001,06,2021_Nov_05_1513,task-switching-replication,2021.2.3,60.01276287662648,
1,26,experiment,06,standing,switch,incongruant,dashed,triangle,yellow,stimuli/dashed-rectangle.png,stimuli/yellow-triangle.png,2,,,,,,,,,,,,,,,,,,,,,,,,,0,0,0,0,0,0,0,0,0,25,25,25,,,,,,,,,,,,,,,,,,,,,,,,,,,,,,,,,,,,,,,,,,,,,,,,,,,,,,,,,,,,,,,,,,,,,,,,,338.61190390586853,None,,,,,,,,,,,,,,,,,,,,,,,,,,,,,,,,,,,,,,,,,,,,,,,,,,,,,,,,,8008,001,06,2021_Nov_05_1513,task-switching-replication,2021.2.3,60.01276287662648,
1,27,experiment,06,standing,noswitch,incongruant,dashed,square,blue,stimuli/dashed-rectangle.png,stimuli/blue-square.png,1,,,,,,,,,,,,,,,,,,,,,,,,,0,0,0,0,0,0,0,0,0,26,26,26,,,,,,,,,,,,,,,,,,,,,,,,,,,,,,,,,,,,,,,,,,,,,,,,,,,,,,,,,,,,,,,1636143479.4345763,,,,,,,,,,340.8246829509735,None,,,,,,,,,,,,,,,,,,,,,,,,,,,,,,,,,,,,,,,,,,338.808758020401,None,339.79825091362,None,1,1,0.9147469997406006,339.79825091362,None,,,,,,,8008,001,06,2021_Nov_05_1513,task-switching-replication,2021.2.3,60.01276287662648,
1,28,experiment,06,standing,switch,congruant,solid,square,yellow,stimuli/solid-rectangle.png,stimuli/yellow-square.png,1,,,,,,,,,,,,,,,,,,,,,,,,,0,0,0,0,0,0,0,0,0,27,27,27,,,,,,,,,,,,,,,,,,,,,,,,,,,,,,,,,,,,,,,,,,,,,,,,,,,,,,,,,,,,,,,1636143481.265072,,,,,,,,,,342.65518283843994,None,,,,,,,,,,,,,,,,,,,,,,,,,,,,,,,,,,,,,,,,,,341.05402088165283,None,342.04341983795166,None,1,1,0.5103418827056885,342.04341983795166,None,,,,,,,8008,001,06,2021_Nov_05_1513,task-switching-replication,2021.2.3,60.01276287662648,
1,29,experiment,06,standing,switch,incongruant,dashed,triangle,yellow,stimuli/dashed-rectangle.png,stimuli/yellow-triangle.png,2,,,,,,,,,,,,,,,,,,,,,,,,,0,0,0,0,0,0,0,0,0,28,28,28,,,,,,,,,,,,,,,,,,,,,,,,,,,,,,,,,,,,,,,,,,,,,,,,,,,,,,,,,,,,,,,1636143483.2769172,,,,,,,,,,344.66611194610596,None,,,,,,,,,,,,,,,,,,,,,,,,,,,,,,,,,,,,,,,,,,342.8844168186188,None,343.87364387512207,None,2,1,0.6685121059417725,343.87364387512207,None,,,,,,,8008,001,06,2021_Nov_05_1513,task-switching-replication,2021.2.3,60.01276287662648,
1,30,experiment,06,standing,switch,congruant,solid,triangle,blue,stimuli/solid-rectangle.png,stimuli/blue-triangle.png,2,,,,,,,,,,,,,,,,,,,,,,,,,0,0,0,0,0,0,0,0,0,29,29,29,,,,,,,,,,,,,,,,,,,,,,,,,,,,,,,,,,,,,,,,,,,,,,,,,,,,,,,,,,,,,,,1636143485.2835102,,,,,,,,,,346.67339396476746,None,,,,,,,,,,,,,,,,,,,,,,,,,,,,,,,,,,,,,,,,,,344.8957190513611,None,345.88473296165466,None,2,1,0.6470990180969238,345.88473296165466,None,,,,,,,8008,001,06,2021_Nov_05_1513,task-switching-replication,2021.2.3,60.01276287662648,
1,31,experiment,06,standing,switch,congruant,dashed,square,yellow,stimuli/dashed-rectangle.png,stimuli/yellow-square.png,2,,,,,,,,,,,,,,,,,,,,,,,,,0,0,0,0,0,0,0,0,0,30,30,30,,,,,0,0,0,0,,,,,,,,,,,,,,,,,,,,,,,,,,,,,,,,,,,,,,,,,,,,,,,,,,,,,,,1636143487.1758313,,,,,,,,,,,,348.5376640558243,349.55909299850464,348.57033801078796,None,,,,,,,,,,,,,,,,,,,,,,,,,,,,,,,,,,,,,,346.9028420448303,None,347.89163398742676,None,1,0,0.5450499057769775,347.89163398742676,None,,,,,,,8008,001,06,2021_Nov_05_1513,task-switching-replication,2021.2.3,60.01276287662648,
1,31,experiment,06,standing,switch,congruant,dashed,square,yellow,stimuli/dashed-rectangle.png,stimuli/yellow-square.png,2,,,,,,,,,,,,,,,,,,,,,,,,,0,0,0,0,0,0,0,0,0,30,30,30,,,,,,,,,,,,,,,,,,,,,,,,,,,,,,,,,,,,,,,,,,,,,,,,,,,,,,,,,,,,,,,,,,,,,,,,,353.58171701431274,None,,,,,,,,,,,,,,,,,,,,,,,,,,,,,,,,,,,,,,,,,,,,,,,,,,,,,,,,,8008,001,06,2021_Nov_05_1513,task-switching-replication,2021.2.3,60.01276287662648,
1,32,experiment,06,standing,switch,incongruant,solid,square,blue,stimuli/solid-rectangle.png,stimuli/blue-square.png,1,,,,,,,,,,,,,,,,,,,,,,,,,0,0,0,0,0,0,0,0,0,31,31,31,,,,,,,,,,,,,,,,,,,,,,,,,,,,,,,,,,,,,,,,,,,,,,,,,,,,,,,,,,,,,,,1636143494.2266994,,,,,,,,,,355.61661100387573,None,,,,,,,,,,,,,,,,,,,,,,,,,,,,,,,,,,,,,,,,,,353.7792589664459,None,354.7685649394989,None,1,1,0.6972410678863525,354.7685649394989,None,,,,,,,8008,001,06,2021_Nov_05_1513,task-switching-replication,2021.2.3,60.01276287662648,
1,33,experiment,06,standing,noswitch,congruant,solid,square,blue,stimuli/solid-rectangle.png,stimuli/blue-square.png,1,,,,,,,,,,,,,,,,,,,,,,,,,0,0,0,0,0,0,0,0,0,32,32,32,,,,,,,,,,,,,,,,,,,,,,,,,,,,,,,,,,,,,,,,,,,,,,,,,,,,,,,,,,,,,,,1636143495.996862,,,,,,,,,,357.3868238925934,None,,,,,,,,,,,,,,,,,,,,,,,,,,,,,,,,,,,,,,,,,,355.84598994255066,None,356.8347318172455,None,1,1,0.4050559997558594,356.8347318172455,None,,,,,,,8008,001,06,2021_Nov_05_1513,task-switching-replication,2021.2.3,60.01276287662648,
1,34,experiment,06,standing,switch,incongruant,dashed,triangle,yellow,stimuli/dashed-rectangle.png,stimuli/yellow-triangle.png,2,,,,,,,,,,,,,,,,,,,,,,,,,0,0,0,0,0,0,0,0,0,33,33,33,,,,,,,,,,,,,,,,,,,,,,,,,,,,,,,,,,,,,,,,,,,,,,,,,,,,,,,,,,,,,,,1636143497.946037,,,,,,,,,,359.3353319168091,None,,,,,,,,,,,,,,,,,,,,,,,,,,,,,,,,,,,,,,,,,,357.6161618232727,None,358.60493302345276,None,2,1,0.5820410251617432,358.60493302345276,None,,,,,,,8008,001,06,2021_Nov_05_1513,task-switching-replication,2021.2.3,60.01276287662648,
1,35,experiment,06,standing,noswitch,congruant,dashed,triangle,yellow,stimuli/dashed-rectangle.png,stimuli/yellow-triangle.png,2,,,,,,,,,,,,,,,,,,,,,,,,,0,0,0,0,0,0,0,0,0,34,34,34,,,,,,,,,,,,,,,,,,,,,,,,,,,,,,,,,,,,,,,,,,,,,,,,,,,,,,,,,,,,,,,1636143499.6569722,,,,,,,,,,361.0471239089966,None,,,,,,,,,,,,,,,,,,,,,,,,,,,,,,,,,,,,,,,,,,359.5647988319397,None,360.55412697792053,None,2,1,0.39363694190979004,360.55412697792053,None,,,,,,,8008,001,06,2021_Nov_05_1513,task-switching-replication,2021.2.3,60.01276287662648,
1,36,experiment,06,standing,noswitch,congruant,dashed,square,yellow,stimuli/dashed-rectangle.png,stimuli/yellow-square.png,2,,,,,,,,,,,,,,,,,,,,,,,,,0,0,0,0,0,0,0,0,0,35,35,35,,,,,,,,,,,,,,,,,,,,,,,,,,,,,,,,,,,,,,,,,,,,,,,,,,,,,,,,,,,,,,,1636143501.3703604,,,,,,,,,,362.76034903526306,None,,,,,,,,,,,,,,,,,,,,,,,,,,,,,,,,,,,,,,,,,,361.27659487724304,None,362.2673900127411,None,2,1,0.35644984245300293,362.2673900127411,None,,,,,,,8008,001,06,2021_Nov_05_1513,task-switching-replication,2021.2.3,60.01276287662648,
1,37,experiment,06,standing,noswitch,incongruant,dashed,triangle,blue,stimuli/dashed-rectangle.png,stimuli/blue-triangle.png,1,,,,,,,,,,,,,,,,,,,,,,,,,0,0,0,0,0,0,0,0,0,36,36,36,,,,,,,,,,,,,,,,,,,,,,,,,,,,,,,,,,,,,,,,,,,,,,,,,,,,,,,,,,,,,,,1636143503.0885317,,,,,,,,,,364.4780578613281,None,,,,,,,,,,,,,,,,,,,,,,,,,,,,,,,,,,,,,,,,,,362.98985600471497,None,363.9808099269867,None,1,1,0.33835601806640625,363.9808099269867,None,,,,,,,8008,001,06,2021_Nov_05_1513,task-switching-replication,2021.2.3,60.01276287662648,
1,38,experiment,06,standing,switch,incongruant,solid,triangle,yellow,stimuli/solid-rectangle.png,stimuli/yellow-triangle.png,2,,,,,,,,,,,,,,,,,,,,,,,,,0,0,0,0,0,0,0,0,0,37,37,37,,,,,,,,,,,,,,,,,,,,,,,,,,,,,,,,,,,,,,,,,,,,,,,,,,,,,,,,,,,,,,,1636143504.9218667,,,,,,,,,,366.31122493743896,None,,,,,,,,,,,,,,,,,,,,,,,,,,,,,,,,,,,,,,,,,,364.70766282081604,None,365.69709491729736,None,2,1,0.4604668617248535,365.69709491729736,None,,,,,,,8008,001,06,2021_Nov_05_1513,task-switching-replication,2021.2.3,60.01276287662648,
1,39,experiment,06,standing,switch,incongruant,dashed,square,blue,stimuli/dashed-rectangle.png,stimuli/blue-square.png,1,,,,,,,,,,,,,,,,,,,,,,,,,0,0,0,0,0,0,0,0,0,38,38,38,,,,,,,,,,,,,,,,,,,,,,,,,,,,,,,,,,,,,,,,,,,,,,,,,,,,,,,,,,,,,,,1636143507.4079478,,,,,,,,,,368.79722690582275,None,,,,,,,,,,,,,,,,,,,,,,,,,,,,,,,,,,,,,,,,,,366.5409059524536,None,367.5305359363556,None,1,1,1.1030571460723877,367.5305359363556,None,,,,,,,8008,001,06,2021_Nov_05_1513,task-switching-replication,2021.2.3,60.01276287662648,
1,40,experiment,06,standing,switch,incongruant,solid,triangle,blue,stimuli/solid-rectangle.png,stimuli/blue-triangle.png,2,,,,,,,,,,,,,,,,,,,,,,,,,0,0,0,0,0,0,0,0,0,39,39,39,,,,,,,,,,,,,,,,,,,,,,,,,,,,,,,,,,,,,,,,,,,,,,,,,,,,,,,,,,,,,,,1636143509.1204543,,,,,,,,,,370.5098948478699,None,,,,,,,,,,,,,,,,,,,,,,,,,,,,,,,,,,,,,,,,,,369.02688789367676,None,370.0162138938904,None,2,1,0.35953307151794434,370.0162138938904,None,,,,,,,8008,001,06,2021_Nov_05_1513,task-switching-replication,2021.2.3,60.01276287662648,
1,41,experiment,06,standing,noswitch,incongruant,solid,square,blue,stimuli/solid-rectangle.png,stimuli/blue-square.png,1,,,,,,,,,,,,,,,,,,,,,,,,,0,0,0,0,0,0,0,0,0,40,40,40,,,,,,,,,,,,,,,,,,,,,,,,,,,,,,,,,,,,,,,,,,,,,,,,,,,,,,,,,,,,,,,1636143510.7713213,,,,,,,,,,372.16106700897217,None,,,,,,,,,,,,,,,,,,,,,,,,,,,,,,,,,,,,,,,,,,370.73944783210754,None,371.72776985168457,None,1,1,0.31739211082458496,371.72776985168457,None,,,,,,,8008,001,06,2021_Nov_05_1513,task-switching-replication,2021.2.3,60.01276287662648,
1,42,experiment,06,standing,noswitch,incongruant,solid,triangle,yellow,stimuli/solid-rectangle.png,stimuli/yellow-triangle.png,2,,,,,,,,,,,,,,,,,,,,,,,,,0,0,0,0,0,0,0,0,0,41,41,41,,,,,,,,,,,,,,,,,,,,,,,,,,,,,,,,,,,,,,,,,,,,,,,,,,,,,,,,,,,,,,,1636143512.48328,,,,,,,,,,373.8735089302063,None,,,,,,,,,,,,,,,,,,,,,,,,,,,,,,,,,,,,,,,,,,372.3905038833618,None,373.3801920413971,None,2,1,0.3851609230041504,373.3801920413971,None,,,,,,,8008,001,06,2021_Nov_05_1513,task-switching-replication,2021.2.3,60.01276287662648,
1,43,experiment,06,standing,noswitch,congruant,solid,triangle,yellow,stimuli/solid-rectangle.png,stimuli/yellow-triangle.png,2,,,,,,,,,,,,,,,,,,,,,,,,,0,0,0,0,0,0,0,0,0,42,42,42,,,,,,,,,,,,,,,,,,,,,,,,,,,,,,,,,,,,,,,,,,,,,,,,,,,,,,,,,,,,,,,1636143514.315003,,,,,,,,,,375.7051680088043,None,,,,,,,,,,,,,,,,,,,,,,,,,,,,,,,,,,,,,,,,,,374.1033899784088,None,375.0930769443512,None,2,1,0.5075929164886475,375.0930769443512,None,,,,,,,8008,001,06,2021_Nov_05_1513,task-switching-replication,2021.2.3,60.01276287662648,
1,44,experiment,06,standing,noswitch,incongruant,solid,square,yellow,stimuli/solid-rectangle.png,stimuli/yellow-square.png,1,,,,,,,,,,,,,,,,,,,,,,,,,0,0,0,0,0,0,0,0,0,43,43,43,,,,,,,,,,,,,,,,,,,,,,,,,,,,,,,,,,,,,,,,,,,,,,,,,,,,,,,,,,,,,,,1636143516.0878115,,,,,,,,,,377.4770998954773,None,,,,,,,,,,,,,,,,,,,,,,,,,,,,,,,,,,,,,,,,,,375.93453097343445,None,376.923898935318,None,1,1,0.4046030044555664,376.923898935318,None,,,,,,,8008,001,06,2021_Nov_05_1513,task-switching-replication,2021.2.3,60.01276287662648,
1,45,experiment,06,standing,noswitch,congruant,solid,square,blue,stimuli/solid-rectangle.png,stimuli/blue-square.png,1,,,,,,,,,,,,,,,,,,,,,,,,,0,0,0,0,0,0,0,0,0,44,44,44,,,,,,,,,,,,,,,,,,,,,,,,,,,,,,,,,,,,,,,,,,,,,,,,,,,,,,,,,,,,,,,1636143518.3319745,,,,,,,,,,379.72192096710205,None,,,,,,,,,,,,,,,,,,,,,,,,,,,,,,,,,,,,,,,,,,377.7066240310669,None,378.6958999633789,None,1,1,0.8956279754638672,378.6958999633789,None,,,,,,,8008,001,06,2021_Nov_05_1513,task-switching-replication,2021.2.3,60.01276287662648,
1,46,experiment,06,standing,switch,incongruant,dashed,square,yellow,stimuli/dashed-rectangle.png,stimuli/yellow-square.png,2,,,,,,,,,,,,,,,,,,,,,,,,,0,0,0,0,0,0,0,0,0,45,45,45,,,,,,,,,,,,,,,,,,,,,,,,,,,,,,,,,,,,,,,,,,,,,,,,,,,,,,,,,,,,,,,1636143520.226843,,,,,,,,,,381.6160418987274,None,,,,,,,,,,,,,,,,,,,,,,,,,,,,,,,,,,,,,,,,,,379.95154094696045,None,380.94152784347534,None,2,1,0.5455381870269775,380.94152784347534,None,,,,,,,8008,001,06,2021_Nov_05_1513,task-switching-replication,2021.2.3,60.01276287662648,
1,47,experiment,06,standing,noswitch,congruant,dashed,triangle,yellow,stimuli/dashed-rectangle.png,stimuli/yellow-triangle.png,2,,,,,,,,,,,,,,,,,,,,,,,,,0,0,0,0,0,0,0,0,0,46,46,46,,,,,,,,,,,,,,,,,,,,,,,,,,,,,,,,,,,,,,,,,,,,,,,,,,,,,,,,,,,,,,,1636143522.2933474,,,,,,,,,,383.68335485458374,None,,,,,,,,,,,,,,,,,,,,,,,,,,,,,,,,,,,,,,,,,,381.8454158306122,None,382.8349139690399,None,2,1,0.6957409381866455,382.8349139690399,None,,,,,,,8008,001,06,2021_Nov_05_1513,task-switching-replication,2021.2.3,60.01276287662648,
1,48,experiment,06,standing,switch,congruant,solid,triangle,blue,stimuli/solid-rectangle.png,stimuli/blue-triangle.png,2,,,,,,,,,,,,,,,,,,,,,,,,,0,0,0,0,0,0,0,0,0,47,47,47,,,,,,,,,,,,,,,,,,,,,,,,,,,,,,,,,,,,,,,,,,,,,,,,,,,,,,,,,,,,,,,1636143524.0381992,,,,,,,,,,385.4285068511963,None,,,,,,,,,,,,,,,,,,,,,,,,,,,,,,,,,,,,,,,,,,383.88654589653015,None,384.87598991394043,None,2,1,0.4358499050140381,384.87598991394043,None,,,,,,,8008,001,06,2021_Nov_05_1513,task-switching-replication,2021.2.3,60.01276287662648,
1,49,experiment,06,standing,switch,incongruant,dashed,square,blue,stimuli/dashed-rectangle.png,stimuli/blue-square.png,1,,,,,,,,,,,,,,,,,,,,,,,,,0,0,0,0,0,0,0,0,0,48,48,48,,,,,,,,,,,,,,,,,,,,,,,,,,,,,,,,,,,,,,,,,,,,,,,,,,,,,,,,,,,,,,,1636143526.1665869,,,,,,,,,,387.5560128688812,None,,,,,,,,,,,,,,,,,,,,,,,,,,,,,,,,,,,,,,,,,,385.65790581703186,None,386.64690804481506,None,1,1,0.7705528736114502,386.64690804481506,None,,,,,,,8008,001,06,2021_Nov_05_1513,task-switching-replication,2021.2.3,60.01276287662648,
,,,06,,,,,,,,,,,,,,,,,,,,,,,,,,,,,,,,,,0,0,0,0,0,0,0,0,,,,,,,,,,,,,,,,,,,,,,,,,,,,,,,,,,,,,,,,,,,,,,,,,,,,,,,,,,,,,,,,,,,,,,,,,,,,,,,,,,,,,,,,,,,,,,,,,,,,,,,,,,,,,,,,,,,,,,,,,,,,,,,,,,,,,,,8008,001,06,2021_Nov_05_1513,task-switching-replication,2021.2.3,60.01276287662648,
2,1,experiment,06,standing,buffer,buffer,dashed,square,blue,stimuli/dashed-rectangle.png,stimuli/blue-square.png,1,,,,,,,,,,,,,,,,,,,,,,,,,0,0,0,0,1,0,1,0,0,0,0,0,,,,,,,,,,,,,,,,,,,,,,,,,,,,,,,,,,,,,,,,,,,,,,,,,,,,,,,,,,,,,,,1636143531.142915,,,,,,,,,,392.53307604789734,None,,,,,,,,,,,,,,,,,,,,,,,,,,,,,,387.78616094589233,None,2,1.277554988861084,387.78616094589233,None,389.1927909851074,None,2,1.3087430000305176,389.1927909851074,None,390.63259100914,None,391.6218509674072,None,1,1,0.7668290138244629,391.6218509674072,None,,,,,,,8008,001,06,2021_Nov_05_1513,task-switching-replication,2021.2.3,60.01276287662648,
2,2,experiment,06,standing,noswitch,congruant,dashed,triangle,blue,stimuli/dashed-rectangle.png,stimuli/blue-triangle.png,1,,,,,,,,,,,,,,,,,,,,,,,,,0,0,0,0,1,0,1,0,0,1,1,1,,,,,0,0,0,0,,,,,,,,,,,,,,,,,,,,,,,,,,,,,,,,,,,,,,,,,,,,,,,,,,,,,,,1636143532.9769857,,,,,,,,,,,,394.3388360738754,395.36019587516785,394.3714048862457,None,,,,,,,,,,,,,,,,,,,,,,,,,,,,,,,,,,,,,,392.76232981681824,None,393.7516839504242,None,2,0,0.4561588764190674,393.7516839504242,None,,,,,,,8008,001,06,2021_Nov_05_1513,task-switching-replication,2021.2.3,60.01276287662648,
2,2,experiment,06,standing,noswitch,congruant,dashed,triangle,blue,stimuli/dashed-rectangle.png,stimuli/blue-triangle.png,1,,,,,,,,,,,,,,,,,,,,,,,,,0,0,0,0,1,0,1,0,0,1,1,1,,,,,,,,,,,,,,,,,,,,,,,,,,,,,,,,,,,,,,,,,,,,,,,,,,,,,,,,,,,,,,,,,,,,,,,,,399.3819799423218,None,,,,,,,,,,,,,,,,,,,,,,,,,,,,,,,,,,,,,,,,,,,,,,,,,,,,,,,,,8008,001,06,2021_Nov_05_1513,task-switching-replication,2021.2.3,60.01276287662648,
2,3,experiment,06,standing,noswitch,incongruant,dashed,triangle,yellow,stimuli/dashed-rectangle.png,stimuli/yellow-triangle.png,2,,,,,,,,,,,,,,,,,,,,,,,,,0,0,0,0,1,0,1,0,0,2,2,2,,,,,,,,,,,,,,,,,,,,,,,,,,,,,,,,,,,,,,,,,,,,,,,,,,,,,,,,,,,,,,,1636143539.8489256,,,,,,,,,,401.2389838695526,None,,,,,,,,,,,,,,,,,,,,,,,,,,,,,,,,,,,,,,,,,,399.5788960456848,None,400.5684359073639,None,2,1,0.5181031227111816,400.5684359073639,None,,,,,,,8008,001,06,2021_Nov_05_1513,task-switching-replication,2021.2.3,60.01276287662648,
2,4,experiment,06,standing,noswitch,incongruant,dashed,square,blue,stimuli/dashed-rectangle.png,stimuli/blue-square.png,1,,,,,,,,,,,,,,,,,,,,,,,,,0,0,0,0,1,0,1,0,0,3,3,3,,,,,,,,,,,,,,,,,,,,,,,,,,,,,,,,,,,,,,,,,,,,,,,,,,,,,,,,,,,,,,,1636143541.6835394,,,,,,,,,,403.07262682914734,None,,,,,,,,,,,,,,,,,,,,,,,,,,,,,,,,,,,,,,,,,,401.468309879303,None,402.4572298526764,None,1,1,0.49138808250427246,402.4572298526764,None,,,,,,,8008,001,06,2021_Nov_05_1513,task-switching-replication,2021.2.3,60.01276287662648,
2,5,experiment,06,standing,switch,congruant,solid,square,blue,stimuli/solid-rectangle.png,stimuli/blue-square.png,1,,,,,,,,,,,,,,,,,,,,,,,,,0,0,0,0,1,0,1,0,0,4,4,4,,,,,,,,,,,,,,,,,,,,,,,,,,,,,,,,,,,,,,,,,,,,,,,,,,,,,,,,,,,,,,,1636143543.5133023,,,,,,,,,,404.90320682525635,None,,,,,,,,,,,,,,,,,,,,,,,,,,,,,,,,,,,,,,,,,,403.3029248714447,None,404.2920548915863,None,1,1,0.483381986618042,404.2920548915863,None,,,,,,,8008,001,06,2021_Nov_05_1513,task-switching-replication,2021.2.3,60.01276287662648,
2,6,experiment,06,standing,noswitch,congruant,solid,square,blue,stimuli/solid-rectangle.png,stimuli/blue-square.png,1,,,,,,,,,,,,,,,,,,,,,,,,,0,0,0,0,1,0,1,0,0,5,5,5,,,,,,,,,,,,,,,,,,,,,,,,,,,,,,,,,,,,,,,,,,,,,,,,,,,,,,,,,,,,,,,1636143545.4026394,,,,,,,,,,406.79267597198486,None,,,,,,,,,,,,,,,,,,,,,,,,,,,,,,,,,,,,,,,,,,405.132621049881,None,406.1221740245819,None,1,1,0.5543620586395264,406.1221740245819,None,,,,,,,8008,001,06,2021_Nov_05_1513,task-switching-replication,2021.2.3,60.01276287662648,
2,7,experiment,06,standing,switch,congruant,dashed,triangle,blue,stimuli/dashed-rectangle.png,stimuli/blue-triangle.png,1,,,,,,,,,,,,,,,,,,,,,,,,,0,0,0,0,1,0,1,0,0,6,6,6,,,,,,,,,,,,,,,,,,,,,,,,,,,,,,,,,,,,,,,,,,,,,,,,,,,,,,,,,,,,,,,1636143547.5288007,,,,,,,,,,408.9187400341034,None,,,,,,,,,,,,,,,,,,,,,,,,,,,,,,,,,,,,,,,,,,407.0223069190979,None,408.0112898349762,None,1,1,0.7871501445770264,408.0112898349762,None,,,,,,,8008,001,06,2021_Nov_05_1513,task-switching-replication,2021.2.3,60.01276287662648,
2,8,experiment,06,standing,noswitch,congruant,dashed,triangle,blue,stimuli/dashed-rectangle.png,stimuli/blue-triangle.png,1,,,,,,,,,,,,,,,,,,,,,,,,,0,0,0,0,1,0,1,0,0,7,7,7,,,,,,,,,,,,,,,,,,,,,,,,,,,,,,,,,,,,,,,,,,,,,,,,,,,,,,,,,,,,,,,1636143549.5359523,,,,,,,,,,410.9258699417114,None,,,,,,,,,,,,,,,,,,,,,,,,,,,,,,,,,,,,,,,,,,409.14817094802856,None,410.1370098590851,None,1,1,0.6444861888885498,410.1370098590851,None,,,,,,,8008,001,06,2021_Nov_05_1513,task-switching-replication,2021.2.3,60.01276287662648,
2,9,experiment,06,standing,noswitch,incongruant,dashed,square,yellow,stimuli/dashed-rectangle.png,stimuli/yellow-square.png,2,,,,,,,,,,,,,,,,,,,,,,,,,0,0,0,0,1,0,1,0,0,8,8,8,,,,,,,,,,,,,,,,,,,,,,,,,,,,,,,,,,,,,,,,,,,,,,,,,,,,,,,,,,,,,,,1636143551.3117795,,,,,,,,,,412.70109486579895,None,,,,,,,,,,,,,,,,,,,,,,,,,,,,,,,,,,,,,,,,,,411.15543699264526,None,412.14510202407837,None,2,1,0.407351016998291,412.14510202407837,None,,,,,,,8008,001,06,2021_Nov_05_1513,task-switching-replication,2021.2.3,60.01276287662648,
2,10,experiment,06,standing,noswitch,incongruant,dashed,square,blue,stimuli/dashed-rectangle.png,stimuli/blue-square.png,1,,,,,,,,,,,,,,,,,,,,,,,,,0,0,0,0,1,0,1,0,0,9,9,9,,,,,,,,,,,,,,,,,,,,,,,,,,,,,,,,,,,,,,,,,,,,,,,,,,,,,,,,,,,,,,,1636143553.6168392,,,,,,,,,,415.0061779022217,None,,,,,,,,,,,,,,,,,,,,,,,,,,,,,,,,,,,,,,,,,,412.93059182167053,None,413.9207580089569,None,1,1,0.9469239711761475,413.9207580089569,None,,,,,,,8008,001,06,2021_Nov_05_1513,task-switching-replication,2021.2.3,60.01276287662648,
2,11,experiment,06,standing,switch,incongruant,solid,triangle,blue,stimuli/solid-rectangle.png,stimuli/blue-triangle.png,2,,,,,,,,,,,,,,,,,,,,,,,,,0,0,0,0,1,0,1,0,0,10,10,10,0,0,0,0,,,,,,,,,,,,,,,,,,,,,,,,,,,,,,,,,,,,,,,,,,,,,,,,,,,,,,,,,,,1636143555.5650425,,,,,,,,,,,,,,,,416.926864027977,417.94876194000244,416.9598798751831,None,,,,,,,,,,,,,,,,,,,,,,,,,,,,,,,,,,415.2356050014496,None,416.2251868247986,None,1,0,0.5861208438873291,416.2251868247986,None,,,,,,,8008,001,06,2021_Nov_05_1513,task-switching-replication,2021.2.3,60.01276287662648,
2,11,experiment,06,standing,switch,incongruant,solid,triangle,blue,stimuli/solid-rectangle.png,stimuli/blue-triangle.png,2,,,,,,,,,,,,,,,,,,,,,,,,,0,0,0,0,1,0,1,0,0,10,10,10,,,,,,,,,,,,,,,,,,,,,,,,,,,,,,,,,,,,,,,,,,,,,,,,,,,,,,,,,,,,,,,,,,,,,,,,,421.9716579914093,None,,,,,,,,,,,,,,,,,,,,,,,,,,,,,,,,,,,,,,,,,,,,,,,,,,,,,,,,,8008,001,06,2021_Nov_05_1513,task-switching-replication,2021.2.3,60.01276287662648,
2,12,experiment,06,standing,switch,congruant,dashed,triangle,yellow,stimuli/dashed-rectangle.png,stimuli/yellow-triangle.png,2,,,,,,,,,,,,,,,,,,,,,,,,,0,0,0,0,1,0,1,0,0,11,11,11,,,,,,,,,,,,,,,,,,,,,,,,,,,,,,,,,,,,,,,,,,,,,,,,,,,,,,,,,,,,,,,1636143562.6201887,,,,,,,,,,424.0096528530121,None,,,,,,,,,,,,,,,,,,,,,,,,,,,,,,,,,,,,,,,,,,422.1687228679657,None,423.1575870513916,None,2,1,0.713054895401001,423.1575870513916,None,,,,,,,8008,001,06,2021_Nov_05_1513,task-switching-replication,2021.2.3,60.01276287662648,
2,13,experiment,06,standing,switch,incongruant,solid,square,yellow,stimuli/solid-rectangle.png,stimuli/yellow-square.png,1,,,,,,,,,,,,,,,,,,,,,,,,,0,0,0,0,1,0,1,0,0,12,12,12,,,,,,,,,,,,,,,,,,,,,,,,,,,,,,,,,,,,,,,,,,,,,,,,,,,,,,,,,,,,,,,1636143564.6270878,,,,,,,,,,426.01711797714233,None,,,,,,,,,,,,,,,,,,,,,,,,,,,,,,,,,,,,,,,,,,424.2388639450073,None,425.22827887535095,None,1,1,0.6750102043151855,425.22827887535095,None,,,,,,,8008,001,06,2021_Nov_05_1513,task-switching-replication,2021.2.3,60.01276287662648,
2,14,experiment,06,standing,switch,incongruant,dashed,triangle,yellow,stimuli/dashed-rectangle.png,stimuli/yellow-triangle.png,2,,,,,,,,,,,,,,,,,,,,,,,,,0,0,0,0,1,0,1,0,0,13,13,13,,,,,,,,,,,,,,,,,,,,,,,,,,,,,,,,,,,,,,,,,,,,,,,,,,,,,,,,,,,,,,,1636143566.6397796,,,,,,,,,,428.02911591529846,None,,,,,,,,,,,,,,,,,,,,,,,,,,,,,,,,,,,,,,,,,,426.2463848590851,None,427.23666882514954,None,2,1,0.6679069995880127,427.23666882514954,None,,,,,,,8008,001,06,2021_Nov_05_1513,task-switching-replication,2021.2.3,60.01276287662648,
2,15,experiment,06,standing,switch,incongruant,solid,square,yellow,stimuli/solid-rectangle.png,stimuli/yellow-square.png,1,,,,,,,,,,,,,,,,,,,,,,,,,0,0,0,0,1,0,1,0,0,14,14,14,,,,,,,,,,,,,,,,,,,,,,,,,,,,,,,,,,,,,,,,,,,,,,,,,,,,,,,,,,,,,,,1636143568.6516752,,,,,,,,,,430.04115104675293,None,,,,,,,,,,,,,,,,,,,,,,,,,,,,,,,,,,,,,,,,,,428.25865483283997,None,429.24788999557495,None,1,1,0.6543240547180176,429.24788999557495,None,,,,,,,8008,001,06,2021_Nov_05_1513,task-switching-replication,2021.2.3,60.01276287662648,
2,16,experiment,06,standing,noswitch,incongruant,solid,triangle,yellow,stimuli/solid-rectangle.png,stimuli/yellow-triangle.png,2,,,,,,,,,,,,,,,,,,,,,,,,,0,0,0,0,1,0,1,0,0,15,15,15,0,0,0,0,,,,,,,,,,,,,,,,,,,,,,,,,,,,,,,,,,,,,,,,,,,,,,,,,,,,,,,,,,,1636143571.4285295,,,,,,,,,,,,,,,,432.799783039093,433.81990694999695,432.8309760093689,None,,,,,,,,,,,,,,,,,,,,,,,,,,,,,,,,,,430.2701258659363,None,431.25961804389954,None,None,0,,431.25961804389954,None,,,,,,,8008,001,06,2021_Nov_05_1513,task-switching-replication,2021.2.3,60.01276287662648,
2,16,experiment,06,standing,noswitch,incongruant,solid,triangle,yellow,stimuli/solid-rectangle.png,stimuli/yellow-triangle.png,2,,,,,,,,,,,,,,,,,,,,,,,,,0,0,0,0,1,0,1,0,0,15,15,15,,,,,,,,,,,,,,,,,,,,,,,,,,,,,,,,,,,,,,,,,,,,,,,,,,,,,,,,,,,,,,,,,,,,,,,,,437.8404438495636,None,,,,,,,,,,,,,,,,,,,,,,,,,,,,,,,,,,,,,,,,,,,,,,,,,,,,,,,,,8008,001,06,2021_Nov_05_1513,task-switching-replication,2021.2.3,60.01276287662648,
2,17,experiment,06,standing,noswitch,incongruant,solid,square,blue,stimuli/solid-rectangle.png,stimuli/blue-square.png,1,,,,,,,,,,,,,,,,,,,,,,,,,0,0,0,0,1,0,1,0,0,16,16,16,,,,,,,,,,,,,,,,,,,,,,,,,,,,,,,,,,,,,,,,,,,,,,,,,,,,,,,,,,,,,,,1636143578.4859908,,,,,,,,,,439.8760709762573,None,,,,,,,,,,,,,,,,,,,,,,,,,,,,,,,,,,,,,,,,,,438.03774404525757,None,439.02756786346436,None,1,1,0.7296161651611328,439.02756786346436,None,,,,,,,8008,001,06,2021_Nov_05_1513,task-switching-replication,2021.2.3,60.01276287662648,
2,18,experiment,06,standing,noswitch,incongruant,solid,triangle,blue,stimuli/solid-rectangle.png,stimuli/blue-triangle.png,2,,,,,,,,,,,,,,,,,,,,,,,,,0,0,0,0,1,0,1,0,0,17,17,17,0,0,0,0,,,,,,,,,,,,,,,,,,,,,,,,,,,,,,,,,,,,,,,,,,,,,,,,,,,,,,,,,,,1636143580.6120577,,,,,,,,,,,,,,,,441.9738539457321,442.99615597724915,442.00673484802246,None,,,,,,,,,,,,,,,,,,,,,,,,,,,,,,,,,,440.10534286499023,None,441.0945129394531,None,1,0,0.7536430358886719,441.0945129394531,None,,,,,,,8008,001,06,2021_Nov_05_1513,task-switching-replication,2021.2.3,60.01276287662648,
2,18,experiment,06,standing,noswitch,incongruant,solid,triangle,blue,stimuli/solid-rectangle.png,stimuli/blue-triangle.png,2,,,,,,,,,,,,,,,,,,,,,,,,,0,0,0,0,1,0,1,0,0,17,17,17,,,,,,,,,,,,,,,,,,,,,,,,,,,,,,,,,,,,,,,,,,,,,,,,,,,,,,,,,,,,,,,,,,,,,,,,,447.0164909362793,None,,,,,,,,,,,,,,,,,,,,,,,,,,,,,,,,,,,,,,,,,,,,,,,,,,,,,,,,,8008,001,06,2021_Nov_05_1513,task-switching-replication,2021.2.3,60.01276287662648,
2,19,experiment,06,standing,noswitch,congruant,solid,triangle,yellow,stimuli/solid-rectangle.png,stimuli/yellow-triangle.png,2,,,,,,,,,,,,,,,,,,,,,,,,,0,0,0,0,1,0,1,0,0,18,18,18,0,0,0,0,,,,,,,,,,,,,,,,,,,,,,,,,,,,,,,,,,,,,,,,,,,,,,,,,,,,,,,,,,,1636143587.4838996,,,,,,,,,,,,,,,,448.8456109762192,449.86691188812256,448.87855195999146,None,,,,,,,,,,,,,,,,,,,,,,,,,,,,,,,,,,447.21308183670044,None,448.2029159069061,None,1,0,0.5453231334686279,448.2029159069061,None,,,,,,,8008,001,06,2021_Nov_05_1513,task-switching-replication,2021.2.3,60.01276287662648,
2,19,experiment,06,standing,noswitch,congruant,solid,triangle,yellow,stimuli/solid-rectangle.png,stimuli/yellow-triangle.png,2,,,,,,,,,,,,,,,,,,,,,,,,,0,0,0,0,1,0,1,0,0,18,18,18,,,,,,,,,,,,,,,,,,,,,,,,,,,,,,,,,,,,,,,,,,,,,,,,,,,,,,,,,,,,,,,,,,,,,,,,,453.88711881637573,None,,,,,,,,,,,,,,,,,,,,,,,,,,,,,,,,,,,,,,,,,,,,,,,,,,,,,,,,,8008,001,06,2021_Nov_05_1513,task-switching-replication,2021.2.3,60.01276287662648,
2,20,experiment,06,standing,switch,congruant,dashed,square,yellow,stimuli/dashed-rectangle.png,stimuli/yellow-square.png,2,,,,,,,,,,,,,,,,,,,,,,,,,0,0,0,0,1,0,1,0,0,19,19,19,,,,,0,0,0,0,,,,,,,,,,,,,,,,,,,,,,,,,,,,,,,,,,,,,,,,,,,,,,,,,,,,,,,1636143594.7095032,,,,,,,,,,,,456.0713139772415,457.0926959514618,456.1047718524933,None,,,,,,,,,,,,,,,,,,,,,,,,,,,,,,,,,,,,,,454.084125995636,None,455.0740189552307,None,1,0,0.8860569000244141,455.0740189552307,None,,,,,,,8008,001,06,2021_Nov_05_1513,task-switching-replication,2021.2.3,60.01276287662648,
2,20,experiment,06,standing,switch,congruant,dashed,square,yellow,stimuli/dashed-rectangle.png,stimuli/yellow-square.png,2,,,,,,,,,,,,,,,,,,,,,,,,,0,0,0,0,1,0,1,0,0,19,19,19,,,,,,,,,,,,,,,,,,,,,,,,,,,,,,,,,,,,,,,,,,,,,,,,,,,,,,,,,,,,,,,,,,,,,,,,,461.1141929626465,None,,,,,,,,,,,,,,,,,,,,,,,,,,,,,,,,,,,,,,,,,,,,,,,,,,,,,,,,,8008,001,06,2021_Nov_05_1513,task-switching-replication,2021.2.3,60.01276287662648,
2,21,experiment,06,standing,switch,incongruant,solid,square,yellow,stimuli/solid-rectangle.png,stimuli/yellow-square.png,1,,,,,,,,,,,,,,,,,,,,,,,,,0,0,0,0,1,0,1,0,0,20,20,20,,,,,,,,,,,,,,,,,,,,,,,,,,,,,,,,,,,,,,,,,,,,,,,,,,,,,,,,,,,,,,,1636143601.463162,,,,,,,,,,462.853404045105,None,,,,,,,,,,,,,,,,,,,,,,,,,,,,,,,,,,,,,,,,,,461.31116795539856,None,462.30098605155945,None,1,1,0.44205403327941895,462.30098605155945,None,,,,,,,8008,001,06,2021_Nov_05_1513,task-switching-replication,2021.2.3,60.01276287662648,
2,22,experiment,06,standing,switch,congruant,dashed,square,blue,stimuli/dashed-rectangle.png,stimuli/blue-square.png,1,,,,,,,,,,,,,,,,,,,,,,,,,0,0,0,0,1,0,1,0,0,21,21,21,,,,,,,,,,,,,,,,,,,,,,,,,,,,,,,,,,,,,,,,,,,,,,,,,,,,,,,,,,,,,,,1636143603.9455404,,,,,,,,,,465.33579897880554,None,,,,,,,,,,,,,,,,,,,,,,,,,,,,,,,,,,,,,,,,,,463.08296394348145,None,464.07249093055725,None,1,1,1.1515231132507324,464.07249093055725,None,,,,,,,8008,001,06,2021_Nov_05_1513,task-switching-replication,2021.2.3,60.01276287662648,
2,23,experiment,06,standing,switch,congruant,solid,square,blue,stimuli/solid-rectangle.png,stimuli/blue-square.png,1,,,,,,,,,,,,,,,,,,,,,,,,,0,0,0,0,1,0,1,0,0,22,22,22,,,,,,,,,,,,,,,,,,,,,,,,,,,,,,,,,,,,,,,,,,,,,,,,,,,,,,,,,,,,,,,1636143605.8356771,,,,,,,,,,467.2255508899689,None,,,,,,,,,,,,,,,,,,,,,,,,,,,,,,,,,,,,,,,,,,465.5654740333557,None,466.5551290512085,None,1,1,0.5398709774017334,466.5551290512085,None,,,,,,,8008,001,06,2021_Nov_05_1513,task-switching-replication,2021.2.3,60.01276287662648,
2,24,experiment,06,standing,switch,incongruant,dashed,square,yellow,stimuli/dashed-rectangle.png,stimuli/yellow-square.png,2,,,,,,,,,,,,,,,,,,,,,,,,,0,0,0,0,1,0,1,0,0,23,23,23,,,,,0,0,0,0,,,,,,,,,,,,,,,,,,,,,,,,,,,,,,,,,,,,,,,,,,,,,,,,,,,,,,,1636143607.7255292,,,,,,,,,,,,469.08716690540314,470.1101038455963,469.12095284461975,None,,,,,,,,,,,,,,,,,,,,,,,,,,,,,,,,,,,,,,467.455139875412,None,468.4448969364166,None,1,0,0.5662119388580322,468.4448969364166,None,,,,,,,8008,001,06,2021_Nov_05_1513,task-switching-replication,2021.2.3,60.01276287662648,
2,24,experiment,06,standing,switch,incongruant,dashed,square,yellow,stimuli/dashed-rectangle.png,stimuli/yellow-square.png,2,,,,,,,,,,,,,,,,,,,,,,,,,0,0,0,0,1,0,1,0,0,23,23,23,,,,,,,,,,,,,,,,,,,,,,,,,,,,,,,,,,,,,,,,,,,,,,,,,,,,,,,,,,,,,,,,,,,,,,,,,474.13338804244995,None,,,,,,,,,,,,,,,,,,,,,,,,,,,,,,,,,,,,,,,,,,,,,,,,,,,,,,,,,8008,001,06,2021_Nov_05_1513,task-switching-replication,2021.2.3,60.01276287662648,
2,25,experiment,06,standing,noswitch,incongruant,dashed,square,blue,stimuli/dashed-rectangle.png,stimuli/blue-square.png,1,,,,,,,,,,,,,,,,,,,,,,,,,0,0,0,0,1,0,1,0,0,24,24,24,,,,,,,,,,,,,,,,,,,,,,,,,,,,,,,,,,,,,,,,,,,,,,,,,,,,,,,,,,,,,,,1636143614.483029,,,,,,,,,,475.87308502197266,None,,,,,,,,,,,,,,,,,,,,,,,,,,,,,,,,,,,,,,,,,,474.33063292503357,None,475.32065296173096,None,1,1,0.4302859306335449,475.32065296173096,None,,,,,,,8008,001,06,2021_Nov_05_1513,task-switching-replication,2021.2.3,60.01276287662648,
2,26,experiment,06,standing,noswitch,congruant,dashed,square,blue,stimuli/dashed-rectangle.png,stimuli/blue-square.png,1,,,,,,,,,,,,,,,,,,,,,,,,,0,0,0,0,1,0,1,0,0,25,25,25,,,,,,,,,,,,,,,,,,,,,,,,,,,,,,,,,,,,,,,,,,,,,,,,,,,,,,,,,,,,,,,1636143616.1348853,,,,,,,,,,477.5248110294342,None,,,,,,,,,,,,,,,,,,,,,,,,,,,,,,,,,,,,,,,,,,476.10245299339294,None,477.09116888046265,None,1,1,0.2958991527557373,477.09116888046265,None,,,,,,,8008,001,06,2021_Nov_05_1513,task-switching-replication,2021.2.3,60.01276287662648,
2,27,experiment,06,standing,switch,congruant,solid,square,yellow,stimuli/solid-rectangle.png,stimuli/yellow-square.png,1,,,,,,,,,,,,,,,,,,,,,,,,,0,0,0,0,1,0,1,0,0,26,26,26,,,,,,,,,,,,,,,,,,,,,,,,,,,,,,,,,,,,,,,,,,,,,,,,,,,,,,,,,,,,,,,1636143618.024124,,,,,,,,,,479.4140558242798,None,,,,,,,,,,,,,,,,,,,,,,,,,,,,,,,,,,,,,,,,,,477.7541379928589,None,478.74354696273804,None,1,1,0.551353931427002,478.74354696273804,None,,,,,,,8008,001,06,2021_Nov_05_1513,task-switching-replication,2021.2.3,60.01276287662648,
2,28,experiment,06,standing,noswitch,congruant,solid,square,yellow,stimuli/solid-rectangle.png,stimuli/yellow-square.png,1,,,,,,,,,,,,,,,,,,,,,,,,,0,0,0,0,1,0,1,0,0,27,27,27,,,,,,,,,,,,,,,,,,,,,,,,,,,,,,,,,,,,,,,,,,,,,,,,,,,,,,,,,,,,,,,1636143619.7355933,,,,,,,,,,481.12563395500183,None,,,,,,,,,,,,,,,,,,,,,,,,,,,,,,,,,,,,,,,,,,479.6434659957886,None,480.6328389644623,None,1,1,0.3820319175720215,480.6328389644623,None,,,,,,,8008,001,06,2021_Nov_05_1513,task-switching-replication,2021.2.3,60.01276287662648,
2,29,experiment,06,standing,noswitch,incongruant,solid,triangle,blue,stimuli/solid-rectangle.png,stimuli/blue-triangle.png,2,,,,,,,,,,,,,,,,,,,,,,,,,0,0,0,0,1,0,1,0,0,28,28,28,,,,,,,,,,,,,,,,,,,,,,,,,,,,,,,,,,,,,,,,,,,,,,,,,,,,,,,,,,,,,,,1636143621.505866,,,,,,,,,,482.89547300338745,None,,,,,,,,,,,,,,,,,,,,,,,,,,,,,,,,,,,,,,,,,,481.35516691207886,None,482.34397983551025,None,2,1,0.44324398040771484,482.34397983551025,None,,,,,,,8008,001,06,2021_Nov_05_1513,task-switching-replication,2021.2.3,60.01276287662648,
2,30,experiment,06,standing,switch,congruant,dashed,triangle,yellow,stimuli/dashed-rectangle.png,stimuli/yellow-triangle.png,2,,,,,,,,,,,,,,,,,,,,,,,,,0,0,0,0,1,0,1,0,0,29,29,29,,,,,,,,,,,,,,,,,,,,,,,,,,,,,,,,,,,,,,,,,,,,,,,,,,,,,,,,,,,,,,,1636143623.6321383,,,,,,,,,,485.0222198963165,None,,,,,,,,,,,,,,,,,,,,,,,,,,,,,,,,,,,,,,,,,,483.1247148513794,None,484.11396288871765,None,2,1,0.7540388107299805,484.11396288871765,None,,,,,,,8008,001,06,2021_Nov_05_1513,task-switching-replication,2021.2.3,60.01276287662648,
2,31,experiment,06,standing,switch,congruant,solid,triangle,yellow,stimuli/solid-rectangle.png,stimuli/yellow-triangle.png,2,,,,,,,,,,,,,,,,,,,,,,,,,0,0,0,0,1,0,1,0,0,30,30,30,,,,,,,,,,,,,,,,,,,,,,,,,,,,,,,,,,,,,,,,,,,,,,,,,,,,,,,,,,,,,,,1636143625.461446,,,,,,,,,,486.8515269756317,None,,,,,,,,,,,,,,,,,,,,,,,,,,,,,,,,,,,,,,,,,,485.25125885009766,None,486.24029088020325,None,2,1,0.5016701221466064,486.24029088020325,None,,,,,,,8008,001,06,2021_Nov_05_1513,task-switching-replication,2021.2.3,60.01276287662648,
2,32,experiment,06,standing,switch,incongruant,dashed,square,blue,stimuli/dashed-rectangle.png,stimuli/blue-square.png,1,,,,,,,,,,,,,,,,,,,,,,,,,0,0,0,0,1,0,1,0,0,31,31,31,,,,,,,,,,,,,,,,,,,,,,,,,,,,,,,,,,,,,,,,,,,,,,,,,,,,,,,,,,,,,,,1636143627.4118128,,,,,,,,,,488.80113887786865,None,,,,,,,,,,,,,,,,,,,,,,,,,,,,,,,,,,,,,,,,,,487.0807638168335,None,488.0698788166046,None,1,1,0.6072518825531006,488.0698788166046,None,,,,,,,8008,001,06,2021_Nov_05_1513,task-switching-replication,2021.2.3,60.01276287662648,
2,33,experiment,06,standing,noswitch,congruant,dashed,triangle,blue,stimuli/dashed-rectangle.png,stimuli/blue-triangle.png,1,,,,,,,,,,,,,,,,,,,,,,,,,0,0,0,0,1,0,1,0,0,32,32,32,,,,,,,,,,,,,,,,,,,,,,,,,,,,,,,,,,,,,,,,,,,,,,,,,,,,,,,,,,,,,,,1636143629.1236336,,,,,,,,,,490.5141978263855,None,,,,,,,,,,,,,,,,,,,,,,,,,,,,,,,,,,,,,,,,,,489.03074502944946,None,490.02061796188354,None,1,1,0.35739994049072266,490.02061796188354,None,,,,,,,8008,001,06,2021_Nov_05_1513,task-switching-replication,2021.2.3,60.01276287662648,
2,34,experiment,06,standing,switch,incongruant,solid,triangle,yellow,stimuli/solid-rectangle.png,stimuli/yellow-triangle.png,2,,,,,,,,,,,,,,,,,,,,,,,,,0,0,0,0,1,0,1,0,0,33,33,33,,,,,,,,,,,,,,,,,,,,,,,,,,,,,,,,,,,,,,,,,,,,,,,,,,,,,,,,,,,,,,,1636143631.1326654,,,,,,,,,,492.52231788635254,None,,,,,,,,,,,,,,,,,,,,,,,,,,,,,,,,,,,,,,,,,,490.7435848712921,None,491.7329659461975,None,2,1,0.6922760009765625,491.7329659461975,None,,,,,,,8008,001,06,2021_Nov_05_1513,task-switching-replication,2021.2.3,60.01276287662648,
2,35,experiment,06,standing,switch,congruant,dashed,square,yellow,stimuli/dashed-rectangle.png,stimuli/yellow-square.png,2,,,,,,,,,,,,,,,,,,,,,,,,,0,0,0,0,1,0,1,0,0,34,34,34,,,,,,,,,,,,,,,,,,,,,,,,,,,,,,,,,,,,,,,,,,,,,,,,,,,,,,,,,,,,,,,1636143633.2580557,,,,,,,,,,494.6480619907379,None,,,,,,,,,,,,,,,,,,,,,,,,,,,,,,,,,,,,,,,,,,492.75154995918274,None,493.74058294296265,None,2,1,0.758512020111084,493.74058294296265,None,,,,,,,8008,001,06,2021_Nov_05_1513,task-switching-replication,2021.2.3,60.01276287662648,
2,36,experiment,06,standing,switch,incongruant,solid,square,blue,stimuli/solid-rectangle.png,stimuli/blue-square.png,1,,,,,,,,,,,,,,,,,,,,,,,,,0,0,0,0,1,0,1,0,0,35,35,35,,,,,,,,,,,,,,,,,,,,,,,,,,,,,,,,,,,,,,,,,,,,,,,,,,,,,,,,,,,,,,,1636143635.2112935,,,,,,,,,,496.60040187835693,None,,,,,,,,,,,,,,,,,,,,,,,,,,,,,,,,,,,,,,,,,,494.8773069381714,None,495.8663098812103,None,1,1,0.6106901168823242,495.8663098812103,None,,,,,,,8008,001,06,2021_Nov_05_1513,task-switching-replication,2021.2.3,60.01276287662648,
2,37,experiment,06,standing,noswitch,incongruant,solid,triangle,yellow,stimuli/solid-rectangle.png,stimuli/yellow-triangle.png,2,,,,,,,,,,,,,,,,,,,,,,,,,0,0,0,0,1,0,1,0,0,36,36,36,,,,,,,,,,,,,,,,,,,,,,,,,,,,,,,,,,,,,,,,,,,,,,,,,,,,,,,,,,,,,,,1636143637.0439932,,,,,,,,,,498.43325304985046,None,,,,,,,,,,,,,,,,,,,,,,,,,,,,,,,,,,,,,,,,,,496.82972502708435,None,497.8197350502014,None,2,1,0.4892139434814453,497.8197350502014,None,,,,,,,8008,001,06,2021_Nov_05_1513,task-switching-replication,2021.2.3,60.01276287662648,
2,38,experiment,06,standing,noswitch,congruant,solid,triangle,blue,stimuli/solid-rectangle.png,stimuli/blue-triangle.png,2,,,,,,,,,,,,,,,,,,,,,,,,,0,0,0,0,1,0,1,0,0,37,37,37,0,0,0,0,,,,,,,,,,,,,,,,,,,,,,,,,,,,,,,,,,,,,,,,,,,,,,,,,,,,,,,,,,,1636143638.9929395,,,,,,,,,,,,,,,,500.3548060655594,501.37570691108704,500.38712096214294,None,,,,,,,,,,,,,,,,,,,,,,,,,,,,,,,,,,498.6625909805298,None,499.65192103385925,None,1,0,0.5717899799346924,499.65192103385925,None,,,,,,,8008,001,06,2021_Nov_05_1513,task-switching-replication,2021.2.3,60.01276287662648,
2,38,experiment,06,standing,noswitch,congruant,solid,triangle,blue,stimuli/solid-rectangle.png,stimuli/blue-triangle.png,2,,,,,,,,,,,,,,,,,,,,,,,,,0,0,0,0,1,0,1,0,0,37,37,37,,,,,,,,,,,,,,,,,,,,,,,,,,,,,,,,,,,,,,,,,,,,,,,,,,,,,,,,,,,,,,,,,,,,,,,,,505.3964009284973,None,,,,,,,,,,,,,,,,,,,,,,,,,,,,,,,,,,,,,,,,,,,,,,,,,,,,,,,,,8008,001,06,2021_Nov_05_1513,task-switching-replication,2021.2.3,60.01276287662648,
2,39,experiment,06,standing,switch,congruant,dashed,square,yellow,stimuli/dashed-rectangle.png,stimuli/yellow-square.png,2,,,,,,,,,,,,,,,,,,,,,,,,,0,0,0,0,1,0,1,0,0,38,38,38,,,,,0,0,0,0,,,,,,,,,,,,,,,,,,,,,,,,,,,,,,,,,,,,,,,,,,,,,,,,,,,,,,,1636143646.2188377,,,,,,,,,,,,507.58059108257294,508.60295391082764,507.61415791511536,None,,,,,,,,,,,,,,,,,,,,,,,,,,,,,,,,,,,,,,505.5934178829193,None,506.58308386802673,None,1,0,0.9166719913482666,506.58308386802673,None,,,,,,,8008,001,06,2021_Nov_05_1513,task-switching-replication,2021.2.3,60.01276287662648,
2,39,experiment,06,standing,switch,congruant,dashed,square,yellow,stimuli/dashed-rectangle.png,stimuli/yellow-square.png,2,,,,,,,,,,,,,,,,,,,,,,,,,0,0,0,0,1,0,1,0,0,38,38,38,,,,,,,,,,,,,,,,,,,,,,,,,,,,,,,,,,,,,,,,,,,,,,,,,,,,,,,,,,,,,,,,,,,,,,,,,512.6231110095978,None,,,,,,,,,,,,,,,,,,,,,,,,,,,,,,,,,,,,,,,,,,,,,,,,,,,,,,,,,8008,001,06,2021_Nov_05_1513,task-switching-replication,2021.2.3,60.01276287662648,
2,40,experiment,06,standing,switch,incongruant,solid,square,yellow,stimuli/solid-rectangle.png,stimuli/yellow-square.png,1,,,,,,,,,,,,,,,,,,,,,,,,,0,0,0,0,1,0,1,0,0,39,39,39,,,,,,,,,,,,,,,,,,,,,,,,,,,,,,,,,,,,,,,,,,,,,,,,,,,,,,,,,,,,,,,1636143653.1489308,,,,,,,,,,514.5390160083771,None,,,,,,,,,,,,,,,,,,,,,,,,,,,,,,,,,,,,,,,,,,512.8204078674316,None,513.8091518878937,None,1,1,0.5917198657989502,513.8091518878937,None,,,,,,,8008,001,06,2021_Nov_05_1513,task-switching-replication,2021.2.3,60.01276287662648,
2,41,experiment,06,standing,noswitch,congruant,solid,square,blue,stimuli/solid-rectangle.png,stimuli/blue-square.png,1,,,,,,,,,,,,,,,,,,,,,,,,,0,0,0,0,1,0,1,0,0,40,40,40,,,,,,,,,,,,,,,,,,,,,,,,,,,,,,,,,,,,,,,,,,,,,,,,,,,,,,,,,,,,,,,1636143654.8606884,,,,,,,,,,516.2506849765778,None,,,,,,,,,,,,,,,,,,,,,,,,,,,,,,,,,,,,,,,,,,514.7682998180389,None,515.7577409744263,None,1,1,0.35004091262817383,515.7577409744263,None,,,,,,,8008,001,06,2021_Nov_05_1513,task-switching-replication,2021.2.3,60.01276287662648,
2,42,experiment,06,standing,switch,incongruant,dashed,square,yellow,stimuli/dashed-rectangle.png,stimuli/yellow-square.png,2,,,,,,,,,,,,,,,,,,,,,,,,,0,0,0,0,1,0,1,0,0,41,41,41,,,,,,,,,,,,,,,,,,,,,,,,,,,,,,,,,,,,,,,,,,,,,,,,,,,,,,,,,,,,,,,1636143656.7498786,,,,,,,,,,518.1396868228912,None,,,,,,,,,,,,,,,,,,,,,,,,,,,,,,,,,,,,,,,,,,516.4800269603729,None,517.4685158729553,None,2,1,0.5369369983673096,517.4685158729553,None,,,,,,,8008,001,06,2021_Nov_05_1513,task-switching-replication,2021.2.3,60.01276287662648,
2,43,experiment,06,standing,noswitch,incongruant,dashed,triangle,blue,stimuli/dashed-rectangle.png,stimuli/blue-triangle.png,1,,,,,,,,,,,,,,,,,,,,,,,,,0,0,0,0,1,0,1,0,0,42,42,42,,,,,,,,,,,,,,,,,,,,,,,,,,,,,,,,,,,,,,,,,,,,,,,,,,,,,,,,,,,,,,,1636143658.761398,,,,,,,,,,520.1507239341736,None,,,,,,,,,,,,,,,,,,,,,,,,,,,,,,,,,,,,,,,,,,518.3692858219147,None,519.3583860397339,None,1,1,0.6385757923126221,519.3583860397339,None,,,,,,,8008,001,06,2021_Nov_05_1513,task-switching-replication,2021.2.3,60.01276287662648,
2,44,experiment,06,standing,switch,incongruant,solid,triangle,blue,stimuli/solid-rectangle.png,stimuli/blue-triangle.png,2,,,,,,,,,,,,,,,,,,,,,,,,,0,0,0,0,1,0,1,0,0,43,43,43,,,,,,,,,,,,,,,,,,,,,,,,,,,,,,,,,,,,,,,,,,,,,,,,,,,,,,,,,,,,,,,1636143661.0655255,,,,,,,,,,522.4548590183258,None,,,,,,,,,,,,,,,,,,,,,,,,,,,,,,,,,,,,,,,,,,520.3799409866333,None,521.3688778877258,None,2,1,0.9470291137695312,521.3688778877258,None,,,,,,,8008,001,06,2021_Nov_05_1513,task-switching-replication,2021.2.3,60.01276287662648,
2,45,experiment,06,standing,noswitch,congruant,solid,triangle,blue,stimuli/solid-rectangle.png,stimuli/blue-triangle.png,2,,,,,,,,,,,,,,,,,,,,,,,,,0,0,0,0,1,0,1,0,0,44,44,44,,,,,,,,,,,,,,,,,,,,,,,,,,,,,,,,,,,,,,,,,,,,,,,,,,,,,,,,,,,,,,,1636143662.8356717,,,,,,,,,,524.2257919311523,None,,,,,,,,,,,,,,,,,,,,,,,,,,,,,,,,,,,,,,,,,,522.6842119693756,None,523.6735939979553,None,2,1,0.43990182876586914,523.6735939979553,None,,,,,,,8008,001,06,2021_Nov_05_1513,task-switching-replication,2021.2.3,60.01276287662648,
2,46,experiment,06,standing,noswitch,congruant,solid,triangle,yellow,stimuli/solid-rectangle.png,stimuli/yellow-triangle.png,2,,,,,,,,,,,,,,,,,,,,,,,,,0,0,0,0,1,0,1,0,0,45,45,45,,,,,,,,,,,,,,,,,,,,,,,,,,,,,,,,,,,,,,,,,,,,,,,,,,,,,,,,,,,,,,,1636143664.7241526,,,,,,,,,,526.1142678260803,None,,,,,,,,,,,,,,,,,,,,,,,,,,,,,,,,,,,,,,,,,,524.4552059173584,None,525.4438438415527,None,2,1,0.5639059543609619,525.4438438415527,None,,,,,,,8008,001,06,2021_Nov_05_1513,task-switching-replication,2021.2.3,60.01276287662648,
2,47,experiment,06,standing,switch,congruant,dashed,triangle,yellow,stimuli/dashed-rectangle.png,stimuli/yellow-triangle.png,2,,,,,,,,,,,,,,,,,,,,,,,,,0,0,0,0,1,0,1,0,0,46,46,46,,,,,,,,,,,,,,,,,,,,,,,,,,,,,,,,,,,,,,,,,,,,,,,,,,,,,,,,,,,,,,,1636143666.9089596,,,,,,,,,,528.2992730140686,None,,,,,,,,,,,,,,,,,,,,,,,,,,,,,,,,,,,,,,,,,,526.3432240486145,None,527.3322689533234,None,2,1,0.8305659294128418,527.3322689533234,None,,,,,,,8008,001,06,2021_Nov_05_1513,task-switching-replication,2021.2.3,60.01276287662648,
2,48,experiment,06,standing,noswitch,congruant,dashed,triangle,yellow,stimuli/dashed-rectangle.png,stimuli/yellow-triangle.png,2,,,,,,,,,,,,,,,,,,,,,,,,,0,0,0,0,1,0,1,0,0,47,47,47,,,,,,,,,,,,,,,,,,,,,,,,,,,,,,,,,,,,,,,,,,,,,,,,,,,,,,,,,,,,,,,1636143668.6200836,,,,,,,,,,530.0102059841156,None,,,,,,,,,,,,,,,,,,,,,,,,,,,,,,,,,,,,,,,,,,528.5288150310516,None,529.5174238681793,None,2,1,0.39534902572631836,529.5174238681793,None,,,,,,,8008,001,06,2021_Nov_05_1513,task-switching-replication,2021.2.3,60.01276287662648,
2,49,experiment,06,standing,noswitch,incongruant,dashed,triangle,blue,stimuli/dashed-rectangle.png,stimuli/blue-triangle.png,1,,,,,,,,,,,,,,,,,,,,,,,,,0,0,0,0,1,0,1,0,0,48,48,48,,,,,0,0,0,0,,,,,,,,,,,,,,,,,,,,,,,,,,,,,,,,,,,,,,,,,,,,,,,,,,,,,,,1636143670.8050873,,,,,,,,,,,,532.1668540239334,533.189621925354,532.2005829811096,None,,,,,,,,,,,,,,,,,,,,,,,,,,,,,,,,,,,,,,530.2395348548889,None,531.2284400463104,None,2,0,0.8548729419708252,531.2284400463104,None,,,,,,,8008,001,06,2021_Nov_05_1513,task-switching-replication,2021.2.3,60.01276287662648,
2,49,experiment,06,standing,noswitch,incongruant,dashed,triangle,blue,stimuli/dashed-rectangle.png,stimuli/blue-triangle.png,1,,,,,,,,,,,,,,,,,,,,,,,,,0,0,0,0,1,0,1,0,0,48,48,48,,,,,,,,,,,,,,,,,,,,,,,,,,,,,,,,,,,,,,,,,,,,,,,,,,,,,,,,,,,,,,,,,,,,,,,,,537.2121279239655,None,,,,,,,,,,,,,,,,,,,,,,,,,,,,,,,,,,,,,,,,,,,,,,,,,,,,,,,,,8008,001,06,2021_Nov_05_1513,task-switching-replication,2021.2.3,60.01276287662648,
,,,06,,,,,,,,,,,,,,,,,,,,,,,,,,,,,,,,,,0,0,0,0,1,0,1,0,,,,,,,,,,,,,,,,,,,,,,,,,,,,,,,,,,,,,,,,,,,,,,,,,,,,,,,,,,,,,,,,,,,,,,,,,,,,,,,,,,,,,,,,,,,,,,,,,,,,,,,,,,,,,,,,,,,,,,,,,,,,,,,,,,,,,,,8008,001,06,2021_Nov_05_1513,task-switching-replication,2021.2.3,60.01276287662648,
3,1,experiment,06,standing,buffer,buffer,dashed,triangle,blue,stimuli/dashed-rectangle.png,stimuli/blue-triangle.png,1,,,,,,,,,,,,,,,,,,,,,,,,,0,0,0,0,2,0,2,0,0,0,0,0,,,,,0,0,0,0,,,,,,,,,,,,,,,,,,,,,,,,,,,,,,,,,,,,,,,,,,,,,,,,,,,,,,,1636143686.8476377,,,,,,,,,,,,548.2093809843063,549.2326250076294,548.2436120510101,None,,,,,,,,,,,,,,,,,,,,,,,,,,537.4098038673401,None,2,5.975917100906372,537.4098038673401,None,543.5069649219513,None,2,2.7718279361724854,543.5069649219513,None,546.3991069793701,None,547.388993024826,None,2,0,0.7266371250152588,547.388993024826,None,,,,,,,8008,001,06,2021_Nov_05_1513,task-switching-replication,2021.2.3,60.01276287662648,
3,1,experiment,06,standing,buffer,buffer,dashed,triangle,blue,stimuli/dashed-rectangle.png,stimuli/blue-triangle.png,1,,,,,,,,,,,,,,,,,,,,,,,,,0,0,0,0,2,0,2,0,0,0,0,0,,,,,,,,,,,,,,,,,,,,,,,,,,,,,,,,,,,,,,,,,,,,,,,,,,,,,,,,,,,,,,,,,,,,,,,,,553.258220911026,None,,,,,,,,,,,,,,,,,,,,,,,,,,,,,,,,,,,,,,,,,,,,,,,,,,,,,,,,,8008,001,06,2021_Nov_05_1513,task-switching-replication,2021.2.3,60.01276287662648,
3,2,experiment,06,standing,noswitch,incongruant,dashed,square,yellow,stimuli/dashed-rectangle.png,stimuli/yellow-square.png,2,,,,,,,,,,,,,,,,,,,,,,,,,0,0,0,0,2,0,2,0,0,1,1,1,,,,,,,,,,,,,,,,,,,,,,,,,,,,,,,,,,,,,,,,,,,,,,,,,,,,,,,,,,,,,,,1636143693.6661704,,,,,,,,,,555.0563189983368,None,,,,,,,,,,,,,,,,,,,,,,,,,,,,,,,,,,,,,,,,,,553.4555230140686,None,554.444650888443,None,2,1,0.48006200790405273,554.444650888443,None,,,,,,,8008,001,06,2021_Nov_05_1513,task-switching-replication,2021.2.3,60.01276287662648,
3,3,experiment,06,standing,noswitch,incongruant,dashed,triangle,blue,stimuli/dashed-rectangle.png,stimuli/blue-triangle.png,1,,,,,,,,,,,,,,,,,,,,,,,,,0,0,0,0,2,0,2,0,0,2,2,2,,,,,,,,,,,,,,,,,,,,,,,,,,,,,,,,,,,,,,,,,,,,,,,,,,,,,,,,,,,,,,,1636143695.3823597,,,,,,,,,,556.7716479301453,None,,,,,,,,,,,,,,,,,,,,,,,,,,,,,,,,,,,,,,,,,,555.2858669757843,None,556.2747039794922,None,1,1,0.3429708480834961,556.2747039794922,None,,,,,,,8008,001,06,2021_Nov_05_1513,task-switching-replication,2021.2.3,60.01276287662648,
3,4,experiment,06,standing,noswitch,incongruant,dashed,square,yellow,stimuli/dashed-rectangle.png,stimuli/yellow-square.png,2,,,,,,,,,,,,,,,,,,,,,,,,,0,0,0,0,2,0,2,0,0,3,3,3,,,,,,,,,,,,,,,,,,,,,,,,,,,,,,,,,,,,,,,,,,,,,,,,,,,,,,,,,,,,,,,1636143697.5137486,,,,,,,,,,558.9029819965363,None,,,,,,,,,,,,,,,,,,,,,,,,,,,,,,,,,,,,,,,,,,557.0016188621521,None,557.991621017456,None,2,1,0.7872629165649414,557.991621017456,None,,,,,,,8008,001,06,2021_Nov_05_1513,task-switching-replication,2021.2.3,60.01276287662648,
3,5,experiment,06,standing,noswitch,incongruant,dashed,triangle,blue,stimuli/dashed-rectangle.png,stimuli/blue-triangle.png,1,,,,,,,,,,,,,,,,,,,,,,,,,0,0,0,0,2,0,2,0,0,4,4,4,,,,,,,,,,,,,,,,,,,,,,,,,,,,,,,,,,,,,,,,,,,,,,,,,,,,,,,,,,,,,,,1636143699.7597127,,,,,,,,,,561.1490569114685,None,,,,,,,,,,,,,,,,,,,,,,,,,,,,,,,,,,,,,,,,,,559.1326398849487,None,560.1225810050964,None,1,1,0.8971800804138184,560.1225810050964,None,,,,,,,8008,001,06,2021_Nov_05_1513,task-switching-replication,2021.2.3,60.01276287662648,
3,6,experiment,06,standing,noswitch,congruant,dashed,square,blue,stimuli/dashed-rectangle.png,stimuli/blue-square.png,1,,,,,,,,,,,,,,,,,,,,,,,,,0,0,0,0,2,0,2,0,0,5,5,5,,,,,,,,,,,,,,,,,,,,,,,,,,,,,,,,,,,,,,,,,,,,,,,,,,,,,,,,,,,,,,,1636143701.6497958,,,,,,,,,,563.0399708747864,None,,,,,,,,,,,,,,,,,,,,,,,,,,,,,,,,,,,,,,,,,,561.3784029483795,None,562.3690240383148,None,1,1,0.5143840312957764,562.3690240383148,None,,,,,,,8008,001,06,2021_Nov_05_1513,task-switching-replication,2021.2.3,60.01276287662648,
3,7,experiment,06,standing,switch,congruant,solid,square,yellow,stimuli/solid-rectangle.png,stimuli/yellow-square.png,1,,,,,,,,,,,,,,,,,,,,,,,,,0,0,0,0,2,0,2,0,0,6,6,6,0,0,0,0,,,,,,,,,,,,,,,,,,,,,,,,,,,,,,,,,,,,,,,,,,,,,,,,,,,,,,,,,,,1636143703.8377132,,,,,,,,,,,,,,,,565.1995428800583,566.2207279205322,565.2317500114441,None,,,,,,,,,,,,,,,,,,,,,,,,,,,,,,,,,,563.2696018218994,None,564.258663892746,None,2,0,0.8442471027374268,564.258663892746,None,,,,,,,8008,001,06,2021_Nov_05_1513,task-switching-replication,2021.2.3,60.01276287662648,
3,7,experiment,06,standing,switch,congruant,solid,square,yellow,stimuli/solid-rectangle.png,stimuli/yellow-square.png,1,,,,,,,,,,,,,,,,,,,,,,,,,0,0,0,0,2,0,2,0,0,6,6,6,,,,,,,,,,,,,,,,,,,,,,,,,,,,,,,,,,,,,,,,,,,,,,,,,,,,,,,,,,,,,,,,,,,,,,,,,570.2446160316467,None,,,,,,,,,,,,,,,,,,,,,,,,,,,,,,,,,,,,,,,,,,,,,,,,,,,,,,,,,8008,001,06,2021_Nov_05_1513,task-switching-replication,2021.2.3,60.01276287662648,
3,8,experiment,06,standing,noswitch,congruant,solid,square,yellow,stimuli/solid-rectangle.png,stimuli/yellow-square.png,1,,,,,,,,,,,,,,,,,,,,,,,,,0,0,0,0,2,0,2,0,0,7,7,7,0,0,0,0,,,,,,,,,,,,,,,,,,,,,,,,,,,,,,,,,,,,,,,,,,,,,,,,,,,,,,,,,,,1636143710.7709095,,,,,,,,,,,,,,,,572.132642865181,573.1547219753265,572.1656339168549,None,,,,,,,,,,,,,,,,,,,,,,,,,,,,,,,,,,570.4416649341583,None,571.430909872055,None,2,0,0.6087820529937744,571.430909872055,None,,,,,,,8008,001,06,2021_Nov_05_1513,task-switching-replication,2021.2.3,60.01276287662648,
3,8,experiment,06,standing,noswitch,congruant,solid,square,yellow,stimuli/solid-rectangle.png,stimuli/yellow-square.png,1,,,,,,,,,,,,,,,,,,,,,,,,,0,0,0,0,2,0,2,0,0,7,7,7,,,,,,,,,,,,,,,,,,,,,,,,,,,,,,,,,,,,,,,,,,,,,,,,,,,,,,,,,,,,,,,,,,,,,,,,,577.1791059970856,None,,,,,,,,,,,,,,,,,,,,,,,,,,,,,,,,,,,,,,,,,,,,,,,,,,,,,,,,,8008,001,06,2021_Nov_05_1513,task-switching-replication,2021.2.3,60.01276287662648,
3,9,experiment,06,standing,switch,congruant,dashed,triangle,blue,stimuli/dashed-rectangle.png,stimuli/blue-triangle.png,1,,,,,,,,,,,,,,,,,,,,,,,,,0,0,0,0,2,0,2,0,0,8,8,8,,,,,,,,,,,,,,,,,,,,,,,,,,,,,,,,,,,,,,,,,,,,,,,,,,,,,,,,,,,,,,,1636143717.7690358,,,,,,,,,,579.158579826355,None,,,,,,,,,,,,,,,,,,,,,,,,,,,,,,,,,,,,,,,,,,577.3775458335876,None,578.3681018352509,None,1,1,0.6265158653259277,578.3681018352509,None,,,,,,,8008,001,06,2021_Nov_05_1513,task-switching-replication,2021.2.3,60.01276287662648,
3,10,experiment,06,standing,noswitch,incongruant,dashed,square,yellow,stimuli/dashed-rectangle.png,stimuli/yellow-square.png,2,,,,,,,,,,,,,,,,,,,,,,,,,0,0,0,0,2,0,2,0,0,9,9,9,,,,,,,,,,,,,,,,,,,,,,,,,,,,,,,,,,,,,,,,,,,,,,,,,,,,,,,,,,,,,,,1636143719.6644492,,,,,,,,,,581.0539510250092,None,,,,,,,,,,,,,,,,,,,,,,,,,,,,,,,,,,,,,,,,,,579.3893280029297,None,580.379812002182,None,2,1,0.5155339241027832,580.379812002182,None,,,,,,,8008,001,06,2021_Nov_05_1513,task-switching-replication,2021.2.3,60.01276287662648,
3,11,experiment,06,standing,noswitch,congruant,dashed,triangle,yellow,stimuli/dashed-rectangle.png,stimuli/yellow-triangle.png,2,,,,,,,,,,,,,,,,,,,,,,,,,0,0,0,0,2,0,2,0,0,10,10,10,,,,,,,,,,,,,,,,,,,,,,,,,,,,,,,,,,,,,,,,,,,,,,,,,,,,,,,,,,,,,,,1636143721.4948869,,,,,,,,,,582.8850419521332,None,,,,,,,,,,,,,,,,,,,,,,,,,,,,,,,,,,,,,,,,,,581.2833669185638,None,582.2730519771576,None,2,1,0.5004029273986816,582.2730519771576,None,,,,,,,8008,001,06,2021_Nov_05_1513,task-switching-replication,2021.2.3,60.01276287662648,
3,12,experiment,06,standing,noswitch,congruant,dashed,triangle,yellow,stimuli/dashed-rectangle.png,stimuli/yellow-triangle.png,2,,,,,,,,,,,,,,,,,,,,,,,,,0,0,0,0,2,0,2,0,0,11,11,11,,,,,,,,,,,,,,,,,,,,,,,,,,,,,,,,,,,,,,,,,,,,,,,,,,,,,,,,,,,,,,,1636143723.2674317,,,,,,,,,,584.6565139293671,None,,,,,,,,,,,,,,,,,,,,,,,,,,,,,,,,,,,,,,,,,,583.1144568920135,None,584.1049909591675,None,2,1,0.40239882469177246,584.1049909591675,None,,,,,,,8008,001,06,2021_Nov_05_1513,task-switching-replication,2021.2.3,60.01276287662648,
3,13,experiment,06,standing,noswitch,incongruant,dashed,triangle,blue,stimuli/dashed-rectangle.png,stimuli/blue-triangle.png,1,,,,,,,,,,,,,,,,,,,,,,,,,0,0,0,0,2,0,2,0,0,12,12,12,,,,,,,,,,,,,,,,,,,,,,,,,,,,,,,,,,,,,,,,,,,,,,,,,,,,,,,,,,,,,,,1636143725.3366992,,,,,,,,,,586.7261300086975,None,,,,,,,,,,,,,,,,,,,,,,,,,,,,,,,,,,,,,,,,,,584.8856308460236,None,585.8757438659668,None,1,1,0.6918158531188965,585.8757438659668,None,,,,,,,8008,001,06,2021_Nov_05_1513,task-switching-replication,2021.2.3,60.01276287662648,
3,14,experiment,06,standing,switch,incongruant,solid,triangle,yellow,stimuli/solid-rectangle.png,stimuli/yellow-triangle.png,2,,,,,,,,,,,,,,,,,,,,,,,,,0,0,0,0,2,0,2,0,0,13,13,13,,,,,,,,,,,,,,,,,,,,,,,,,,,,,,,,,,,,,,,,,,,,,,,,,,,,,,,,,,,,,,,1636143727.2254453,,,,,,,,,,588.6151309013367,None,,,,,,,,,,,,,,,,,,,,,,,,,,,,,,,,,,,,,,,,,,586.955356836319,None,587.944855928421,None,2,1,0.572638988494873,587.944855928421,None,,,,,,,8008,001,06,2021_Nov_05_1513,task-switching-replication,2021.2.3,60.01276287662648,
3,15,experiment,06,standing,switch,congruant,dashed,square,yellow,stimuli/dashed-rectangle.png,stimuli/yellow-square.png,2,,,,,,,,,,,,,,,,,,,,,,,,,0,0,0,0,2,0,2,0,0,14,14,14,,,,,0,0,0,0,,,,,,,,,,,,,,,,,,,,,,,,,,,,,,,,,,,,,,,,,,,,,,,,,,,,,,,1636143729.1781034,,,,,,,,,,,,590.5399149656296,591.5607099533081,590.5723679065704,None,,,,,,,,,,,,,,,,,,,,,,,,,,,,,,,,,,,,,,588.8445689678192,None,589.8349528312683,None,1,0,0.5935230255126953,589.8349528312683,None,,,,,,,8008,001,06,2021_Nov_05_1513,task-switching-replication,2021.2.3,60.01276287662648,
3,15,experiment,06,standing,switch,congruant,dashed,square,yellow,stimuli/dashed-rectangle.png,stimuli/yellow-square.png,2,,,,,,,,,,,,,,,,,,,,,,,,,0,0,0,0,2,0,2,0,0,14,14,14,,,,,,,,,,,,,,,,,,,,,,,,,,,,,,,,,,,,,,,,,,,,,,,,,,,,,,,,,,,,,,,,,,,,,,,,,595.5827770233154,None,,,,,,,,,,,,,,,,,,,,,,,,,,,,,,,,,,,,,,,,,,,,,,,,,,,,,,,,,8008,001,06,2021_Nov_05_1513,task-switching-replication,2021.2.3,60.01276287662648,
3,16,experiment,06,standing,switch,congruant,solid,triangle,yellow,stimuli/solid-rectangle.png,stimuli/yellow-triangle.png,2,,,,,,,,,,,,,,,,,,,,,,,,,0,0,0,0,2,0,2,0,0,15,15,15,,,,,,,,,,,,,,,,,,,,,,,,,,,,,,,,,,,,,,,,,,,,,,,,,,,,,,,,,,,,,,,1636143735.9934323,,,,,,,,,,597.3828248977661,None,,,,,,,,,,,,,,,,,,,,,,,,,,,,,,,,,,,,,,,,,,595.7796759605408,None,596.769063949585,None,2,1,0.4595019817352295,596.769063949585,None,,,,,,,8008,001,06,2021_Nov_05_1513,task-switching-replication,2021.2.3,60.01276287662648,
3,17,experiment,06,standing,noswitch,incongruant,solid,square,yellow,stimuli/solid-rectangle.png,stimuli/yellow-square.png,1,,,,,,,,,,,,,,,,,,,,,,,,,0,0,0,0,2,0,2,0,0,16,16,16,0,0,0,0,,,,,,,,,,,,,,,,,,,,,,,,,,,,,,,,,,,,,,,,,,,,,,,,,,,,,,,,,,,1636143737.7636957,,,,,,,,,,,,,,,,599.1254280805588,600.1472840309143,599.158383846283,None,,,,,,,,,,,,,,,,,,,,,,,,,,,,,,,,,,597.6124289035797,None,598.6014029979706,None,2,0,0.4319629669189453,598.6014029979706,None,,,,,,,8008,001,06,2021_Nov_05_1513,task-switching-replication,2021.2.3,60.01276287662648,
3,17,experiment,06,standing,noswitch,incongruant,solid,square,yellow,stimuli/solid-rectangle.png,stimuli/yellow-square.png,1,,,,,,,,,,,,,,,,,,,,,,,,,0,0,0,0,2,0,2,0,0,16,16,16,,,,,,,,,,,,,,,,,,,,,,,,,,,,,,,,,,,,,,,,,,,,,,,,,,,,,,,,,,,,,,,,,,,,,,,,,604.1702108383179,None,,,,,,,,,,,,,,,,,,,,,,,,,,,,,,,,,,,,,,,,,,,,,,,,,,,,,,,,,8008,001,06,2021_Nov_05_1513,task-switching-replication,2021.2.3,60.01276287662648,
3,18,experiment,06,standing,noswitch,congruant,solid,square,blue,stimuli/solid-rectangle.png,stimuli/blue-square.png,1,,,,,,,,,,,,,,,,,,,,,,,,,0,0,0,0,2,0,2,0,0,17,17,17,,,,,,,,,,,,,,,,,,,,,,,,,,,,,,,,,,,,,,,,,,,,,,,,,,,,,,,,,,,,,,,1636143744.8780456,,,,,,,,,,606.2676558494568,None,,,,,,,,,,,,,,,,,,,,,,,,,,,,,,,,,,,,,,,,,,604.3674418926239,None,605.3568608760834,None,1,1,0.7813119888305664,605.3568608760834,None,,,,,,,8008,001,06,2021_Nov_05_1513,task-switching-replication,2021.2.3,60.01276287662648,
3,19,experiment,06,standing,noswitch,congruant,solid,square,blue,stimuli/solid-rectangle.png,stimuli/blue-square.png,1,,,,,,,,,,,,,,,,,,,,,,,,,0,0,0,0,2,0,2,0,0,18,18,18,,,,,,,,,,,,,,,,,,,,,,,,,,,,,,,,,,,,,,,,,,,,,,,,,,,,,,,,,,,,,,,1636143746.530215,,,,,,,,,,607.9203288555145,None,,,,,,,,,,,,,,,,,,,,,,,,,,,,,,,,,,,,,,,,,,606.4969809055328,None,607.4862680435181,None,1,1,0.32154297828674316,607.4862680435181,None,,,,,,,8008,001,06,2021_Nov_05_1513,task-switching-replication,2021.2.3,60.01276287662648,
3,20,experiment,06,standing,switch,incongruant,dashed,triangle,yellow,stimuli/dashed-rectangle.png,stimuli/yellow-triangle.png,2,,,,,,,,,,,,,,,,,,,,,,,,,0,0,0,0,2,0,2,0,0,19,19,19,,,,,,,,,,,,,,,,,,,,,,,,,,,,,,,,,,,,,,,,,,,,,,,,,,,,,,,,,,,,,,,1636143748.4803002,,,,,,,,,,609.8696429729462,None,,,,,,,,,,,,,,,,,,,,,,,,,,,,,,,,,,,,,,,,,,608.149384021759,None,609.1383938789368,None,2,1,0.6071789264678955,609.1383938789368,None,,,,,,,8008,001,06,2021_Nov_05_1513,task-switching-replication,2021.2.3,60.01276287662648,
3,21,experiment,06,standing,switch,incongruant,solid,square,yellow,stimuli/solid-rectangle.png,stimuli/yellow-square.png,1,,,,,,,,,,,,,,,,,,,,,,,,,0,0,0,0,2,0,2,0,0,20,20,20,0,0,0,0,,,,,,,,,,,,,,,,,,,,,,,,,,,,,,,,,,,,,,,,,,,,,,,,,,,,,,,,,,,1636143750.7844977,,,,,,,,,,,,,,,,612.1462630033493,613.1681969165802,612.1793339252472,None,,,,,,,,,,,,,,,,,,,,,,,,,,,,,,,,,,610.0993568897247,None,611.0889799594879,None,2,0,0.9364659786224365,611.0889799594879,None,,,,,,,8008,001,06,2021_Nov_05_1513,task-switching-replication,2021.2.3,60.01276287662648,
