blockNum,trialNum,trialType,condition,posture,switchTrialType,congruantTrialType,cueType,shapeType,shapeColor,cueFileName,stimuliFileName,correctAnswer,untimedTrials.thisRepN,untimedTrials.thisTrialN,untimedTrials.thisN,untimedTrials.thisIndex,selectSolid1.thisRepN,selectSolid1.thisTrialN,selectSolid1.thisN,selectSolid1.thisIndex,selectDashed1.thisRepN,selectDashed1.thisTrialN,selectDashed1.thisN,selectDashed1.thisIndex,timedTrials.thisRepN,timedTrials.thisTrialN,timedTrials.thisN,timedTrials.thisIndex,selectSolid2.thisRepN,selectSolid2.thisTrialN,selectSolid2.thisN,selectSolid2.thisIndex,selectDashed2.thisRepN,selectDashed2.thisTrialN,selectDashed2.thisN,selectDashed2.thisIndex,postures.thisRepN,postures.thisTrialN,postures.thisN,postures.thisIndex,blocks.thisRepN,blocks.thisTrialN,blocks.thisN,blocks.thisIndex,trials.thisRepN,trials.thisTrialN,trials.thisN,trials.thisIndex,selectSolid.thisRepN,selectSolid.thisTrialN,selectSolid.thisN,selectSolid.thisIndex,selectDashed.thisRepN,selectDashed.thisTrialN,selectDashed.thisN,selectDashed.thisIndex,text_3.started,text_3.stopped,key_resp_2.keys,key_resp_2.rt,key_resp_2.started,key_resp_2.stopped,image_4.started,image_4.stopped,key_resp_4.keys,key_resp_4.rt,key_resp_4.started,key_resp_4.stopped,image_5.started,image_5.stopped,key_resp_5.keys,key_resp_5.rt,key_resp_5.started,key_resp_5.stopped,image_6.started,image_6.stopped,key_resp_6.keys,key_resp_6.rt,key_resp_6.started,key_resp_6.stopped,image_7.started,image_7.stopped,key_resp_7.keys,key_resp_7.rt,key_resp_7.started,key_resp_7.stopped,image_8.started,image_8.stopped,key_resp_8.keys,key_resp_8.rt,key_resp_8.started,key_resp_8.stopped,image_9.started,image_9.stopped,key_resp_9.keys,key_resp_9.rt,key_resp_9.started,key_resp_9.stopped,image_10.started,image_10.stopped,key_resp_10.keys,key_resp_10.rt,key_resp_10.started,key_resp_10.stopped,image_11.started,image_11.stopped,key_resp_11.keys,key_resp_11.rt,key_resp_11.started,key_resp_11.stopped,utcTime,cue_untimed_image.started,cue_untimed_image.stopped,stimuli_untimed_image.started,stimuli_untimed_image.stopped,untimed_resp.keys,untimed_resp.corr,untimed_resp.rt,untimed_resp.started,untimed_resp.stopped,text_2.started,text_2.stopped,sound_1.started,sound_1.stopped,image_2.started,image_2.stopped,sound_2.started,sound_2.stopped,image_3.started,image_3.stopped,image_12.started,image_12.stopped,key_resp_12.keys,key_resp_12.rt,key_resp_12.started,key_resp_12.stopped,image_13.started,image_13.stopped,key_resp_13.keys,key_resp_13.rt,key_resp_13.started,key_resp_13.stopped,cue_timed_image.started,cue_timed_image.stopped,stimuli_timed_image.started,stimuli_timed_image.stopped,timed_resp.keys,timed_resp.corr,timed_resp.rt,timed_resp.started,timed_resp.stopped,image.started,image.stopped,key_response.keys,key_response.rt,key_response.started,key_response.stopped,text.started,text.stopped,key_resp.keys,key_resp.rt,key_resp.started,key_resp.stopped,cue_image.started,cue_image.stopped,stimuli_image.started,stimuli_image.stopped,exp_resp.keys,exp_resp.corr,exp_resp.rt,exp_resp.started,exp_resp.stopped,participant,session,condition,date,expName,psychopyVersion,frameRate,
,,,08,,,,,,,,,,,,,,,,,,,,,,,,,,,,,,,,,,,,,,,,,,,,,,,,,,,,,,61.027209997177124,None,1,12.067394018173218,61.027209997177124,None,,,,,,,,,,,,,,,,,,,,,,,,,,,,,,,,,,,,,,,,,,,,,,,,,,,,,,,,,,,,,,,,,,,,,,,,,,,,,,,,,,,,,,,,,,,,,,,,,,,,,,,,,,,,,,,8010,001,08,2021_Nov_08_1330,task-switching-replication,2021.2.3,59.99696746895231,
,,,08,,,,,,,,,,,,,,,,,,,,,,,,,,,,,,,,,,,,,,,,,,,,,,,,,,,,,,,,,,,,73.13917303085327,None,1,18.521914958953857,73.13917303085327,None,,,,,,,,,,,,,,,,,,,,,,,,,,,,,,,,,,,,,,,,,,,,,,,,,,,,,,,,,,,,,,,,,,,,,,,,,,,,,,,,,,,,,,,,,,,,,,,,,,,,,,,,,8010,001,08,2021_Nov_08_1330,task-switching-replication,2021.2.3,59.99696746895231,
,,,08,,,,,,,,,,,,,,,,,,,,,,,,,,,,,,,,,,,,,,,,,,,,,,,,,,,,,,,,,,,,,,,,,,91.73549199104309,None,1,11.578512907028198,91.73549199104309,None,,,,,,,,,,,,,,,,,,,,,,,,,,,,,,,,,,,,,,,,,,,,,,,,,,,,,,,,,,,,,,,,,,,,,,,,,,,,,,,,,,,,,,,,,,,,,,,,,,,8010,001,08,2021_Nov_08_1330,task-switching-replication,2021.2.3,59.99696746895231,
,,,08,,,,,,,,,,,,,,,,,,,,,,,,,,,,,,,,,,,,,,,,,,,,,,,,,,,,,,,,,,,,,,,,,,,,,,,,103.39457201957703,None,2,6.27710485458374,103.39457201957703,None,,,,,,,,,,,,,,,,,,,,,,,,,,,,,,,,,,,,,,,,,,,,,,,,,,,,,,,,,,,,,,,,,,,,,,,,,,,,,,,,,,,,,,,,,,,,,8010,001,08,2021_Nov_08_1330,task-switching-replication,2021.2.3,59.99696746895231,
,,,08,,,,,,,,,,,,,,,,,,,,,,,,,,,,,,,,,,,,,,,,,,,,,,,,,,,,,,,,,,,,,,,,,,,,,,,,,,,,,,109.76624202728271,None,1,8.992028951644897,109.76624202728271,None,,,,,,,,,,,,,,,,,,,,,,,,,,,,,,,,,,,,,,,,,,,,,,,,,,,,,,,,,,,,,,,,,,,,,,,,,,,,,,,,,,,,,,,8010,001,08,2021_Nov_08_1330,task-switching-replication,2021.2.3,59.99696746895231,
,,,08,,,,,,,,,,,,,,,,,,,,,,,,,,,,,,,,,,,,,,,,,,,,,,,,,,,,,,,,,,,,,,,,,,,,,,,,,,,,,,,,,,,,118.87471890449524,None,1,7.63614821434021,118.87471890449524,None,,,,,,,,,,,,,,,,,,,,,,,,,,,,,,,,,,,,,,,,,,,,,,,,,,,,,,,,,,,,,,,,,,,,,,,,,,,,,,,,,8010,001,08,2021_Nov_08_1330,task-switching-replication,2021.2.3,59.99696746895231,
,,,08,,,,,,,,,,,,,,,,,,,,,,,,,,,,,,,,,,,,,,,,,,,,,,,,,,,,,,,,,,,,,,,,,,,,,,,,,,,,,,,,,,,,,,,,,,126.58702898025513,None,2,2.1691908836364746,126.58702898025513,None,,,,,,,,,,,,,,,,,,,,,,,,,,,,,,,,,,,,,,,,,,,,,,,,,,,,,,,,,,,,,,,,,,,,,,,,,,,8010,001,08,2021_Nov_08_1330,task-switching-replication,2021.2.3,59.99696746895231,
,,,08,,,,,,,,,,,,,,,,,,,,,,,,,,,,,,,,,,,,,,,,,,,,,,,,,,,,,,,,,,,,,,,,,,,,,,,,,,,,,,,,,,,,,,,,,,,,,,,,128.88738298416138,None,2,0.6517229080200195,128.88738298416138,None,,,,,,,,,,,,,,,,,,,,,,,,,,,,,,,,,,,,,,,,,,,,,,,,,,,,,,,,,,,,,,,,,,,,,8010,001,08,2021_Nov_08_1330,task-switching-replication,2021.2.3,59.99696746895231,
,,,08,,,,,,,,,,,,,,,,,,,,,,,,,,,,,,,,,,,,,,,,,,,,,,,,,,,,,,,,,,,,,,,,,,,,,,,,,,,,,,,,,,,,,,,,,,,,,,,,,,,,,,129.60776686668396,None,1,27.113171100616455,129.60776686668396,None,,,,,,,,,,,,,,,,,,,,,,,,,,,,,,,,,,,,,,,,,,,,,,,,,,,,,,,,,,,,,,,8010,001,08,2021_Nov_08_1330,task-switching-replication,2021.2.3,59.99696746895231,
1,1,untimed,08,standing,buffer,buffer,solid,square,yellow,stimuli/solid-rectangle.png,stimuli/yellow-square.png,1,0,0,0,0,,,,,,,,,,,,,,,,,,,,,,,,,,,,,,,,,,,,,,,,,,,,,,,,,,,,,,,,,,,,,,,,,,,,,,,,,,,,,,,,,,,,,,,,,,,,,,,1636399929.284405,156.953449010849,None,157.95950198173523,None,1,1,0.4102671146392822,157.95950198173523,None,158.51747798919678,None,,,,,,,,,,,,,,,,,,,,,,,,,,,,,,,,,,,,,,,,,,,,,,,,,,,8010,001,08,2021_Nov_08_1330,task-switching-replication,2021.2.3,59.99696746895231,
1,2,untimed,08,standing,switch,congruant,dashed,square,yellow,stimuli/dashed-rectangle.png,stimuli/yellow-square.png,1,0,1,1,1,,,,,,,,,,,,,,,,,,,,,,,,,,,,,,,,,,,,,,,,,,,,,,,,,,,,,,,,,,,,,,,,,,,,,,,,,,,,,,,,,,,,,,,,,,,,,,,1636399931.3851504,158.75458788871765,None,159.76041293144226,None,1,1,0.7294270992279053,159.76041293144226,None,160.61749696731567,None,,,,,,,,,,,,,,,,,,,,,,,,,,,,,,,,,,,,,,,,,,,,,,,,,,,8010,001,08,2021_Nov_08_1330,task-switching-replication,2021.2.3,59.99696746895231,
1,3,untimed,08,standing,switch,congruant,solid,square,blue,stimuli/solid-rectangle.png,stimuli/blue-square.png,1,0,2,2,2,0,0,0,0,,,,,,,,,,,,,,,,,,,,,,,,,,,,,,,,,,,,,,,,,,,,,,,,,,,,,,,,,,,,,,,,,,,,,,,,,,,,,,,,,,,,,,,,,,,1636399933.4832592,160.85334706306458,None,161.8588080406189,None,2,0,0.7563998699188232,161.8588080406189,None,,,162.68754184246063,163.70604801177979,162.71996903419495,None,,,,,,,,,,,,,,,,,,,,,,,,,,,,,,,,,,,,,,,,,,,,,,,8010,001,08,2021_Nov_08_1330,task-switching-replication,2021.2.3,59.99696746895231,
1,3,untimed,08,standing,switch,congruant,solid,square,blue,stimuli/solid-rectangle.png,stimuli/blue-square.png,1,0,2,2,2,,,,,,,,,,,,,,,,,,,,,,,,,,,,,,,,,,,,,,,,,,,,,,,,,,,,,,,,,,,,,,,,,,,,,,,,,,,,,,,,,,,,,,,,,,,,,,,,,,,,,,,,,167.74480986595154,None,,,,,,,,,,,,,,,,,,,,,,,,,,,,,,,,,,,,,,,,,,,,,,,,,,,8010,001,08,2021_Nov_08_1330,task-switching-replication,2021.2.3,59.99696746895231,
1,4,untimed,08,standing,switch,incongruant,dashed,square,blue,stimuli/dashed-rectangle.png,stimuli/blue-square.png,2,0,3,3,3,,,,,,,,,,,,,,,,,,,,,,,,,,,,,,,,,,,,,,,,,,,,,,,,,,,,,,,,,,,,,,,,,,,,,,,,,,,,,,,,,,,,,,,,,,,,,,,1636399940.8981707,167.9420690536499,None,168.91357803344727,None,2,1,1.0791819095611572,168.91357803344727,None,170.13065004348755,None,,,,,,,,,,,,,,,,,,,,,,,,,,,,,,,,,,,,,,,,,,,,,,,,,,,8010,001,08,2021_Nov_08_1330,task-switching-replication,2021.2.3,59.99696746895231,
1,5,untimed,08,standing,switch,congruant,solid,triangle,yellow,stimuli/solid-rectangle.png,stimuli/yellow-triangle.png,2,0,4,4,4,0,0,0,0,,,,,,,,,,,,,,,,,,,,,,,,,,,,,,,,,,,,,,,,,,,,,,,,,,,,,,,,,,,,,,,,,,,,,,,,,,,,,,,,,,,,,,,,,,,1636399942.9775033,170.3775119781494,None,171.34922695159912,None,1,0,0.7296860218048096,171.34922695159912,None,,,172.1818698644638,173.23272490501404,172.21353602409363,None,,,,,,,,,,,,,,,,,,,,,,,,,,,,,,,,,,,,,,,,,,,,,,,8010,001,08,2021_Nov_08_1330,task-switching-replication,2021.2.3,59.99696746895231,
1,5,untimed,08,standing,switch,congruant,solid,triangle,yellow,stimuli/solid-rectangle.png,stimuli/yellow-triangle.png,2,0,4,4,4,,,,,,,,,,,,,,,,,,,,,,,,,,,,,,,,,,,,,,,,,,,,,,,,,,,,,,,,,,,,,,,,,,,,,,,,,,,,,,,,,,,,,,,,,,,,,,,,,,,,,,,,,177.2349889278412,None,,,,,,,,,,,,,,,,,,,,,,,,,,,,,,,,,,,,,,,,,,,,,,,,,,,8010,001,08,2021_Nov_08_1330,task-switching-replication,2021.2.3,59.99696746895231,
1,6,untimed,08,standing,noswitch,incongruant,solid,square,blue,stimuli/solid-rectangle.png,stimuli/blue-square.png,1,0,5,5,5,0,0,0,0,,,,,,,,,,,,,,,,,,,,,,,,,,,,,,,,,,,,,,,,,,,,,,,,,,,,,,,,,,,,,,,,,,,,,,,,,,,,,,,,,,,,,,,,,,,1636399950.0297163,177.43254494667053,None,178.40442991256714,None,2,0,0.7449319362640381,178.40442991256714,None,,,179.2340008020401,180.28602504730225,179.26623392105103,None,,,,,,,,,,,,,,,,,,,,,,,,,,,,,,,,,,,,,,,,,,,,,,,8010,001,08,2021_Nov_08_1330,task-switching-replication,2021.2.3,59.99696746895231,
1,6,untimed,08,standing,noswitch,incongruant,solid,square,blue,stimuli/solid-rectangle.png,stimuli/blue-square.png,1,0,5,5,5,,,,,,,,,,,,,,,,,,,,,,,,,,,,,,,,,,,,,,,,,,,,,,,,,,,,,,,,,,,,,,,,,,,,,,,,,,,,,,,,,,,,,,,,,,,,,,,,,,,,,,,,,184.2917079925537,None,,,,,,,,,,,,,,,,,,,,,,,,,,,,,,,,,,,,,,,,,,,,,,,,,,,8010,001,08,2021_Nov_08_1330,task-switching-replication,2021.2.3,59.99696746895231,
1,7,untimed,08,standing,switch,incongruant,dashed,triangle,blue,stimuli/dashed-rectangle.png,stimuli/blue-triangle.png,2,0,6,6,6,,,,,0,0,0,0,,,,,,,,,,,,,,,,,,,,,,,,,,,,,,,,,,,,,,,,,,,,,,,,,,,,,,,,,,,,,,,,,,,,,,,,,,,,,,,,,,,,,,,1636399957.1480303,184.4890420436859,None,185.46066904067993,None,1,0,0.7795038223266602,185.46066904067993,None,,,,,,,186.35239493846893,187.40415787696838,186.3848478794098,None,,,,,,,,,,,,,,,,,,,,,,,,,,,,,,,,,,,,,,,,,,,8010,001,08,2021_Nov_08_1330,task-switching-replication,2021.2.3,59.99696746895231,
1,7,untimed,08,standing,switch,incongruant,dashed,triangle,blue,stimuli/dashed-rectangle.png,stimuli/blue-triangle.png,2,0,6,6,6,,,,,,,,,,,,,,,,,,,,,,,,,,,,,,,,,,,,,,,,,,,,,,,,,,,,,,,,,,,,,,,,,,,,,,,,,,,,,,,,,,,,,,,,,,,,,,,,,,,,,,,,,191.4099199771881,None,,,,,,,,,,,,,,,,,,,,,,,,,,,,,,,,,,,,,,,,,,,,,,,,,,,8010,001,08,2021_Nov_08_1330,task-switching-replication,2021.2.3,59.99696746895231,
1,8,untimed,08,standing,switch,congruant,solid,triangle,blue,stimuli/solid-rectangle.png,stimuli/blue-triangle.png,2,0,7,7,7,,,,,,,,,,,,,,,,,,,,,,,,,,,,,,,,,,,,,,,,,,,,,,,,,,,,,,,,,,,,,,,,,,,,,,,,,,,,,,,,,,,,,,,,,,,,,,,1636399964.5114985,191.60699796676636,None,192.57944703102112,None,2,1,1.0094709396362305,192.57944703102112,None,193.74322485923767,None,,,,,,,,,,,,,,,,,,,,,,,,,,,,,,,,,,,,,,,,,,,,,,,,,,,8010,001,08,2021_Nov_08_1330,task-switching-replication,2021.2.3,59.99696746895231,
1,9,untimed,08,standing,noswitch,congruant,solid,triangle,blue,stimuli/solid-rectangle.png,stimuli/blue-triangle.png,2,0,8,8,8,,,,,,,,,,,,,,,,,,,,,,,,,,,,,,,,,,,,,,,,,,,,,,,,,,,,,,,,,,,,,,,,,,,,,,,,,,,,,,,,,,,,,,,,,,,,,,,1636399966.2112176,193.97312903404236,None,194.94611287117004,None,2,1,0.3595089912414551,194.94611287117004,None,195.44358897209167,None,,,,,,,,,,,,,,,,,,,,,,,,,,,,,,,,,,,,,,,,,,,,,,,,,,,8010,001,08,2021_Nov_08_1330,task-switching-replication,2021.2.3,59.99696746895231,
1,10,untimed,08,standing,noswitch,congruant,solid,triangle,yellow,stimuli/solid-rectangle.png,stimuli/yellow-triangle.png,2,0,9,9,9,,,,,,,,,,,,,,,,,,,,,,,,,,,,,,,,,,,,,,,,,,,,,,,,,,,,,,,,,,,,,,,,,,,,,,,,,,,,,,,,,,,,,,,,,,,,,,,1636399967.970166,195.67341303825378,None,196.64538097381592,None,2,1,0.43337202072143555,196.64538097381592,None,197.2034468650818,None,,,,,,,,,,,,,,,,,,,,,,,,,,,,,,,,,,,,,,,,,,,,,,,,,,,8010,001,08,2021_Nov_08_1330,task-switching-replication,2021.2.3,59.99696746895231,
1,11,untimed,08,standing,switch,incongruant,dashed,square,yellow,stimuli/dashed-rectangle.png,stimuli/yellow-square.png,1,0,10,10,10,,,,,,,,,,,,,,,,,,,,,,,,,,,,,,,,,,,,,,,,,,,,,,,,,,,,,,,,,,,,,,,,,,,,,,,,,,,,,,,,,,,,,,,,,,,,,,,1636399969.7377355,197.43387389183044,None,198.40756797790527,None,1,1,0.4172840118408203,198.40756797790527,None,198.96975183486938,None,,,,,,,,,,,,,,,,,,,,,,,,,,,,,,,,,,,,,,,,,,,,,,,,,,,8010,001,08,2021_Nov_08_1330,task-switching-replication,2021.2.3,59.99696746895231,
1,12,untimed,08,standing,noswitch,congruant,dashed,triangle,yellow,stimuli/dashed-rectangle.png,stimuli/yellow-triangle.png,1,0,11,11,11,,,,,0,0,0,0,,,,,,,,,,,,,,,,,,,,,,,,,,,,,,,,,,,,,,,,,,,,,,,,,,,,,,,,,,,,,,,,,,,,,,,,,,,,,,,,,,,,,,,1636399971.6197264,199.19956302642822,None,200.17236995697021,None,2,0,0.5450799465179443,200.17236995697021,None,,,,,,,200.824098944664,201.87585997581482,200.85635685920715,None,,,,,,,,,,,,,,,,,,,,,,,,,,,,,,,,,,,,,,,,,,,8010,001,08,2021_Nov_08_1330,task-switching-replication,2021.2.3,59.99696746895231,
1,12,untimed,08,standing,noswitch,congruant,dashed,triangle,yellow,stimuli/dashed-rectangle.png,stimuli/yellow-triangle.png,1,0,11,11,11,,,,,,,,,,,,,,,,,,,,,,,,,,,,,,,,,,,,,,,,,,,,,,,,,,,,,,,,,,,,,,,,,,,,,,,,,,,,,,,,,,,,,,,,,,,,,,,,,,,,,,,,,205.88396000862122,None,,,,,,,,,,,,,,,,,,,,,,,,,,,,,,,,,,,,,,,,,,,,,,,,,,,8010,001,08,2021_Nov_08_1330,task-switching-replication,2021.2.3,59.99696746895231,
,,,08,,,,,,,,,,,,,,,,,,,,,,,,,,,,,,,,,,,,,,,,,,,,,,,,,,,,,,,,,,,,,,,,,,,,,,,,,,,,,,,,,,,,,,,,,,,,,,,,,,,,,,,,,,,,,,,,,,,,,,,,,,,,,,,,206.08125805854797,None,1,4.395517826080322,206.08125805854797,None,,,,,,,,,,,,,,,,,,,,,,,,,,,,,,,,,,,,,8010,001,08,2021_Nov_08_1330,task-switching-replication,2021.2.3,59.99696746895231,
,,,08,,,,,,,,,,,,,,,,,,,,,,,,,,,,,,,,,,,,,,,,,,,,,,,,,,,,,,,,,,,,,,,,,,,,,,,,,,,,,,,,,,,,,,,,,,,,,,,,,,,,,,,,,,,,,,,,,,,,,,,,,,,,,,,,,,,,,,210.57026195526123,None,2,9.452626943588257,210.57026195526123,None,,,,,,,,,,,,,,,,,,,,,,,,,,,,,,,8010,001,08,2021_Nov_08_1330,task-switching-replication,2021.2.3,59.99696746895231,
1,1,timed,08,standing,buffer,buffer,solid,square,blue,stimuli/solid-rectangle.png,stimuli/blue-square.png,1,,,,,,,,,,,,,0,0,0,0,,,,,,,,,,,,,,,,,,,,,,,,,,,,,,,,,,,,,,,,,,,,,,,,,,,,,,,,,,,,,,,,,,,,,,,,,,,,,,,,,,,1636399992.39592,,,,,,,,,,221.62864995002747,None,,,,,,,,,,,,,,,,,,,,,220.14508485794067,None,221.1353738307953,None,1,1,0.39356279373168945,221.1353738307953,None,,,,,,,,,,,,,,,,,,,,,,8010,001,08,2021_Nov_08_1330,task-switching-replication,2021.2.3,59.99696746895231,
1,2,timed,08,standing,switch,congruant,dashed,triangle,yellow,stimuli/dashed-rectangle.png,stimuli/yellow-triangle.png,1,,,,,,,,,,,,,0,1,1,1,,,,,0,0,0,0,,,,,,,,,,,,,,,,,,,,,,,,,,,,,,,,,,,,,,,,,,,,,,,,,,,,,,,,,,,,,,,,,,,,,,,,,,,1636399994.4636328,,,,,,,,,,,,,,,,223.6679037809372,224.6866099834442,223.70131182670593,None,,,,,,,,,,,,,221.85781383514404,None,222.84744596481323,None,2,0,0.7446110248565674,222.84744596481323,None,,,,,,,,,,,,,,,,,,,,,,8010,001,08,2021_Nov_08_1330,task-switching-replication,2021.2.3,59.99696746895231,
1,2,timed,08,standing,switch,congruant,dashed,triangle,yellow,stimuli/dashed-rectangle.png,stimuli/yellow-triangle.png,1,,,,,,,,,,,,,0,1,1,1,,,,,,,,,,,,,,,,,,,,,,,,,,,,,,,,,,,,,,,,,,,,,,,,,,,,,,,,,,,,,,,,,,,,,,,,,,,,,,,,,,,,,,,,,,,,,228.72810006141663,None,,,,,,,,,,,,,,,,,,,,,,,,,,,,,,,,,,,,,,,,,,,,,,,,,,,8010,001,08,2021_Nov_08_1330,task-switching-replication,2021.2.3,59.99696746895231,
1,3,timed,08,standing,noswitch,congruant,dashed,square,yellow,stimuli/dashed-rectangle.png,stimuli/yellow-square.png,1,,,,,,,,,,,,,0,2,2,2,,,,,,,,,,,,,,,,,,,,,,,,,,,,,,,,,,,,,,,,,,,,,,,,,,,,,,,,,,,,,,,,,,,,,,,,,,,,,,,,,,,1636400001.178647,,,,,,,,,,230.41042804718018,None,,,,,,,,,,,,,,,,,,,,,228.9248058795929,None,229.91448783874512,None,1,1,0.37171483039855957,229.91448783874512,None,,,,,,,,,,,,,,,,,,,,,,8010,001,08,2021_Nov_08_1330,task-switching-replication,2021.2.3,59.99696746895231,
1,4,timed,08,standing,switch,incongruant,solid,triangle,blue,stimuli/solid-rectangle.png,stimuli/blue-triangle.png,2,,,,,,,,,,,,,0,3,3,3,,,,,,,,,,,,,,,,,,,,,,,,,,,,,,,,,,,,,,,,,,,,,,,,,,,,,,,,,,,,,,,,,,,,,,,,,,,,,,,,,,,1636400002.9532285,,,,,,,,,,232.1851110458374,None,,,,,,,,,,,,,,,,,,,,,230.64003992080688,None,231.63022804260254,None,2,1,0.4306509494781494,231.63022804260254,None,,,,,,,,,,,,,,,,,,,,,,8010,001,08,2021_Nov_08_1330,task-switching-replication,2021.2.3,59.99696746895231,
1,5,timed,08,standing,noswitch,congruant,solid,triangle,blue,stimuli/solid-rectangle.png,stimuli/blue-triangle.png,2,,,,,,,,,,,,,0,4,4,4,,,,,,,,,,,,,,,,,,,,,,,,,,,,,,,,,,,,,,,,,,,,,,,,,,,,,,,,,,,,,,,,,,,,,,,,,,,,,,,,,,,1636400004.7270267,,,,,,,,,,233.95951104164124,None,,,,,,,,,,,,,,,,,,,,,232.41488790512085,None,233.40713596343994,None,2,1,0.4406161308288574,233.40713596343994,None,,,,,,,,,,,,,,,,,,,,,,8010,001,08,2021_Nov_08_1330,task-switching-replication,2021.2.3,59.99696746895231,
1,6,timed,08,standing,noswitch,incongruant,solid,square,blue,stimuli/solid-rectangle.png,stimuli/blue-square.png,1,,,,,,,,,,,,,0,5,5,5,,,,,,,,,,,,,,,,,,,,,,,,,,,,,,,,,,,,,,,,,,,,,,,,,,,,,,,,,,,,,,,,,,,,,,,,,,,,,,,,,,,1636400006.381873,,,,,,,,,,235.6139600276947,None,,,,,,,,,,,,,,,,,,,,,234.18958592414856,None,235.18043994903564,None,1,1,0.3304250240325928,235.18043994903564,None,,,,,,,,,,,,,,,,,,,,,,8010,001,08,2021_Nov_08_1330,task-switching-replication,2021.2.3,59.99696746895231,
1,7,timed,08,standing,switch,incongruant,dashed,triangle,blue,stimuli/dashed-rectangle.png,stimuli/blue-triangle.png,2,,,,,,,,,,,,,0,6,6,6,,,,,,,,,,,,,,,,,,,,,,,,,,,,,,,,,,,,,,,,,,,,,,,,,,,,,,,,,,,,,,,,,,,,,,,,,,,,,,,,,,,1636400008.0943391,,,,,,,,,,237.32688403129578,None,,,,,,,,,,,,,,,,,,,,,235.84317994117737,None,236.83400702476501,None,2,1,0.3933379650115967,236.83400702476501,None,,,,,,,,,,,,,,,,,,,,,,8010,001,08,2021_Nov_08_1330,task-switching-replication,2021.2.3,59.99696746895231,
1,8,timed,08,standing,noswitch,incongruant,dashed,square,yellow,stimuli/dashed-rectangle.png,stimuli/yellow-square.png,1,,,,,,,,,,,,,0,7,7,7,,,,,,,,,,,,,,,,,,,,,,,,,,,,,,,,,,,,,,,,,,,,,,,,,,,,,,,,,,,,,,,,,,,,,,,,,,,,,,,,,,,1636400009.754299,,,,,,,,,,238.98598098754883,None,,,,,,,,,,,,,,,,,,,,,237.55630493164062,None,238.54823803901672,None,1,1,0.31403589248657227,238.54823803901672,None,,,,,,,,,,,,,,,,,,,,,,8010,001,08,2021_Nov_08_1330,task-switching-replication,2021.2.3,59.99696746895231,
1,9,timed,08,standing,noswitch,incongruant,dashed,triangle,blue,stimuli/dashed-rectangle.png,stimuli/blue-triangle.png,2,,,,,,,,,,,,,0,8,8,8,,,,,,,,,,,,,,,,,,,,,,,,,,,,,,,,,,,,,,,,,,,,,,,,,,,,,,,,,,,,,,,,,,,,,,,,,,,,,,,,,,,1636400011.5868764,,,,,,,,,,240.8187758922577,None,,,,,,,,,,,,,,,,,,,,,239.21562004089355,None,240.2051818370819,None,2,1,0.4651000499725342,240.2051818370819,None,,,,,,,,,,,,,,,,,,,,,,8010,001,08,2021_Nov_08_1330,task-switching-replication,2021.2.3,59.99696746895231,
1,10,timed,08,standing,switch,congruant,solid,triangle,yellow,stimuli/solid-rectangle.png,stimuli/yellow-triangle.png,2,,,,,,,,,,,,,0,9,9,9,,,,,,,,,,,,,,,,,,,,,,,,,,,,,,,,,,,,,,,,,,,,,,,,,,,,,,,,,,,,,,,,,,,,,,,,,,,,,,,,,,,1636400014.0096073,,,,,,,,,,243.24222898483276,None,,,,,,,,,,,,,,,,,,,,,241.04809188842773,None,242.0375199317932,None,2,1,1.06489896774292,242.0375199317932,None,,,,,,,,,,,,,,,,,,,,,,8010,001,08,2021_Nov_08_1330,task-switching-replication,2021.2.3,59.99696746895231,
1,11,timed,08,standing,noswitch,incongruant,solid,square,yellow,stimuli/solid-rectangle.png,stimuli/yellow-square.png,1,,,,,,,,,,,,,0,10,10,10,,,,,,,,,,,,,,,,,,,,,,,,,,,,,,,,,,,,,,,,,,,,,,,,,,,,,,,,,,,,,,,,,,,,,,,,,,,,,,,,,,,1636400015.786178,,,,,,,,,,245.01782989501953,None,,,,,,,,,,,,,,,,,,,,,243.4716658592224,None,244.46259188652039,None,1,1,0.426738977432251,244.46259188652039,None,,,,,,,,,,,,,,,,,,,,,,8010,001,08,2021_Nov_08_1330,task-switching-replication,2021.2.3,59.99696746895231,
1,12,timed,08,standing,switch,incongruant,dashed,square,blue,stimuli/dashed-rectangle.png,stimuli/blue-square.png,2,,,,,,,,,,,,,0,11,11,11,,,,,0,0,0,0,,,,,,,,,,,,,,,,,,,,,,,,,,,,,,,,,,,,,,,,,,,,,,,,,,,,,,,,,,,,,,,,,,,,,,,,,,,1636400017.8513334,,,,,,,,,,,,,,,,247.0555909872055,248.07349300384521,247.08896398544312,None,,,,,,,,,,,,,245.24677991867065,None,246.23550391197205,None,1,0,0.7427418231964111,246.23550391197205,None,,,,,,,,,,,,,,,,,,,,,,8010,001,08,2021_Nov_08_1330,task-switching-replication,2021.2.3,59.99696746895231,
1,12,timed,08,standing,switch,incongruant,dashed,square,blue,stimuli/dashed-rectangle.png,stimuli/blue-square.png,2,,,,,,,,,,,,,0,11,11,11,,,,,,,,,,,,,,,,,,,,,,,,,,,,,,,,,,,,,,,,,,,,,,,,,,,,,,,,,,,,,,,,,,,,,,,,,,,,,,,,,,,,,,,,,,,,,252.11540985107422,None,,,,,,,,,,,,,,,,,,,,,,,,,,,,,,,,,,,,,,,,,,,,,,,,,,,8010,001,08,2021_Nov_08_1330,task-switching-replication,2021.2.3,59.99696746895231,
1,13,timed,08,standing,noswitch,incongruant,dashed,triangle,yellow,stimuli/dashed-rectangle.png,stimuli/yellow-triangle.png,1,,,,,,,,,,,,,0,12,12,12,,,,,0,0,0,0,,,,,,,,,,,,,,,,,,,,,,,,,,,,,,,,,,,,,,,,,,,,,,,,,,,,,,,,,,,,,,,,,,,,,,,,,,,1636400024.6807506,,,,,,,,,,,,,,,,253.88506281375885,254.90272784233093,253.9180359840393,None,,,,,,,,,,,,,252.31212782859802,None,253.3015809059143,None,2,0,0.49808597564697266,253.3015809059143,None,,,,,,,,,,,,,,,,,,,,,,8010,001,08,2021_Nov_08_1330,task-switching-replication,2021.2.3,59.99696746895231,
1,13,timed,08,standing,noswitch,incongruant,dashed,triangle,yellow,stimuli/dashed-rectangle.png,stimuli/yellow-triangle.png,1,,,,,,,,,,,,,0,12,12,12,,,,,,,,,,,,,,,,,,,,,,,,,,,,,,,,,,,,,,,,,,,,,,,,,,,,,,,,,,,,,,,,,,,,,,,,,,,,,,,,,,,,,,,,,,,,,258.94626688957214,None,,,,,,,,,,,,,,,,,,,,,,,,,,,,,,,,,,,,,,,,,,,,,,,,,,,8010,001,08,2021_Nov_08_1330,task-switching-replication,2021.2.3,59.99696746895231,
1,14,timed,08,standing,switch,incongruant,solid,triangle,blue,stimuli/solid-rectangle.png,stimuli/blue-triangle.png,2,,,,,,,,,,,,,0,13,13,13,,,,,,,,,,,,,,,,,,,,,,,,,,,,,,,,,,,,,,,,,,,,,,,,,,,,,,,,,,,,,,,,,,,,,,,,,,,,,,,,,,,1636400031.4544687,,,,,,,,,,260.6870119571686,None,,,,,,,,,,,,,,,,,,,,,259.1436359882355,None,260.13434386253357,None,2,1,0.43388819694519043,260.13434386253357,None,,,,,,,,,,,,,,,,,,,,,,8010,001,08,2021_Nov_08_1330,task-switching-replication,2021.2.3,59.99696746895231,
1,15,timed,08,standing,noswitch,incongruant,solid,square,yellow,stimuli/solid-rectangle.png,stimuli/yellow-square.png,1,,,,,,,,,,,,,0,14,14,14,0,0,0,0,,,,,,,,,,,,,,,,,,,,,,,,,,,,,,,,,,,,,,,,,,,,,,,,,,,,,,,,,,,,,,,,,,,,,,,,,,,,,,,1636400033.345185,,,,,,,,,,,,262.54943788051605,263.567400932312,262.58263897895813,None,,,,,,,,,,,,,,,,,260.91656589508057,None,261.90673184394836,None,2,0,0.5715639591217041,261.90673184394836,None,,,,,,,,,,,,,,,,,,,,,,8010,001,08,2021_Nov_08_1330,task-switching-replication,2021.2.3,59.99696746895231,
1,15,timed,08,standing,noswitch,incongruant,solid,square,yellow,stimuli/solid-rectangle.png,stimuli/yellow-square.png,1,,,,,,,,,,,,,0,14,14,14,,,,,,,,,,,,,,,,,,,,,,,,,,,,,,,,,,,,,,,,,,,,,,,,,,,,,,,,,,,,,,,,,,,,,,,,,,,,,,,,,,,,,,,,,,,,,267.6044158935547,None,,,,,,,,,,,,,,,,,,,,,,,,,,,,,,,,,,,,,,,,,,,,,,,,,,,8010,001,08,2021_Nov_08_1330,task-switching-replication,2021.2.3,59.99696746895231,
1,16,timed,08,standing,noswitch,congruant,solid,square,blue,stimuli/solid-rectangle.png,stimuli/blue-square.png,1,,,,,,,,,,,,,0,15,15,15,,,,,,,,,,,,,,,,,,,,,,,,,,,,,,,,,,,,,,,,,,,,,,,,,,,,,,,,,,,,,,,,,,,,,,,,,,,,,,,,,,,1636400040.2917461,,,,,,,,,,269.52347898483276,None,,,,,,,,,,,,,,,,,,,,,267.80136704444885,None,268.7904188632965,None,1,1,0.5991611480712891,268.7904188632965,None,,,,,,,,,,,,,,,,,,,,,,8010,001,08,2021_Nov_08_1330,task-switching-replication,2021.2.3,59.99696746895231,
1,17,timed,08,standing,switch,congruant,dashed,square,yellow,stimuli/dashed-rectangle.png,stimuli/yellow-square.png,1,,,,,,,,,,,,,0,16,16,16,,,,,,,,,,,,,,,,,,,,,,,,,,,,,,,,,,,,,,,,,,,,,,,,,,,,,,,,,,,,,,,,,,,,,,,,,,,,,,,,,,,1636400042.0033991,,,,,,,,,,271.23578906059265,None,,,,,,,,,,,,,,,,,,,,,269.7531599998474,None,270.7424440383911,None,1,1,0.3606839179992676,270.7424440383911,None,,,,,,,,,,,,,,,,,,,,,,8010,001,08,2021_Nov_08_1330,task-switching-replication,2021.2.3,59.99696746895231,
1,18,timed,08,standing,noswitch,incongruant,dashed,triangle,blue,stimuli/dashed-rectangle.png,stimuli/blue-triangle.png,2,,,,,,,,,,,,,0,17,17,17,,,,,,,,,,,,,,,,,,,,,,,,,,,,,,,,,,,,,,,,,,,,,,,,,,,,,,,,,,,,,,,,,,,,,,,,,,,,,,,,,,,1636400043.6554902,,,,,,,,,,272.8877148628235,None,,,,,,,,,,,,,,,,,,,,,271.46527886390686,None,272.45439100265503,None,2,1,0.3243110179901123,272.45439100265503,None,,,,,,,,,,,,,,,,,,,,,,8010,001,08,2021_Nov_08_1330,task-switching-replication,2021.2.3,59.99696746895231,
1,19,timed,08,standing,noswitch,incongruant,dashed,triangle,yellow,stimuli/dashed-rectangle.png,stimuli/yellow-triangle.png,1,,,,,,,,,,,,,0,18,18,18,,,,,,,,,,,,,,,,,,,,,,,,,,,,,,,,,,,,,,,,,,,,,,,,,,,,,,,,,,,,,,,,,,,,,,,,,,,,,,,,,,,1636400045.6637275,,,,,,,,,,274.8956198692322,None,,,,,,,,,,,,,,,,,,,,,273.11702704429626,None,274.1065490245819,None,1,1,0.676414966583252,274.1065490245819,None,,,,,,,,,,,,,,,,,,,,,,8010,001,08,2021_Nov_08_1330,task-switching-replication,2021.2.3,59.99696746895231,
1,20,timed,08,standing,switch,incongruant,solid,triangle,yellow,stimuli/solid-rectangle.png,stimuli/yellow-triangle.png,2,,,,,,,,,,,,,0,19,19,19,,,,,,,,,,,,,,,,,,,,,,,,,,,,,,,,,,,,,,,,,,,,,,,,,,,,,,,,,,,,,,,,,,,,,,,,,,,,,,,,,,,1636400047.612443,,,,,,,,,,276.8442599773407,None,,,,,,,,,,,,,,,,,,,,,275.12475991249084,None,276.1147668361664,None,2,1,0.6226098537445068,276.1147668361664,None,,,,,,,,,,,,,,,,,,,,,,8010,001,08,2021_Nov_08_1330,task-switching-replication,2021.2.3,59.99696746895231,
1,21,timed,08,standing,noswitch,incongruant,solid,square,yellow,stimuli/solid-rectangle.png,stimuli/yellow-square.png,1,,,,,,,,,,,,,0,20,20,20,,,,,,,,,,,,,,,,,,,,,,,,,,,,,,,,,,,,,,,,,,,,,,,,,,,,,,,,,,,,,,,,,,,,,,,,,,,,,,,,,,,1636400049.5609686,,,,,,,,,,278.79301595687866,None,,,,,,,,,,,,,,,,,,,,,277.0737669467926,None,278.0633690357208,None,1,1,0.6140069961547852,278.0633690357208,None,,,,,,,,,,,,,,,,,,,,,,8010,001,08,2021_Nov_08_1330,task-switching-replication,2021.2.3,59.99696746895231,
1,22,timed,08,standing,switch,incongruant,dashed,square,blue,stimuli/dashed-rectangle.png,stimuli/blue-square.png,2,,,,,,,,,,,,,0,21,21,21,,,,,,,,,,,,,,,,,,,,,,,,,,,,,,,,,,,,,,,,,,,,,,,,,,,,,,,,,,,,,,,,,,,,,,,,,,,,,,,,,,,1636400051.4487433,,,,,,,,,,280.6812789440155,None,,,,,,,,,,,,,,,,,,,,,279.02222204208374,None,280.0109260082245,None,2,1,0.5677609443664551,280.0109260082245,None,,,,,,,,,,,,,,,,,,,,,,8010,001,08,2021_Nov_08_1330,task-switching-replication,2021.2.3,59.99696746895231,
1,23,timed,08,standing,switch,congruant,solid,triangle,yellow,stimuli/solid-rectangle.png,stimuli/yellow-triangle.png,2,,,,,,,,,,,,,0,22,22,22,,,,,,,,,,,,,,,,,,,,,,,,,,,,,,,,,,,,,,,,,,,,,,,,,,,,,,,,,,,,,,,,,,,,,,,,,,,,,,,,,,,1636400053.6341994,,,,,,,,,,282.8666980266571,None,,,,,,,,,,,,,,,,,,,,,280.91040301322937,None,281.8997468948364,None,2,1,0.8666179180145264,281.8997468948364,None,,,,,,,,,,,,,,,,,,,,,,8010,001,08,2021_Nov_08_1330,task-switching-replication,2021.2.3,59.99696746895231,
1,24,timed,08,standing,switch,congruant,dashed,square,blue,stimuli/dashed-rectangle.png,stimuli/blue-square.png,2,,,,,,,,,,,,,0,23,23,23,,,,,0,0,0,0,,,,,,,,,,,,,,,,,,,,,,,,,,,,,,,,,,,,,,,,,,,,,,,,,,,,,,,,,,,,,,,,,,,,,,,,,,,1636400055.5839813,,,,,,,,,,,,,,,,284.7883538007736,285.8059289455414,284.8207449913025,None,,,,,,,,,,,,,283.0963499546051,None,284.085391998291,None,1,0,0.591609001159668,284.085391998291,None,,,,,,,,,,,,,,,,,,,,,,8010,001,08,2021_Nov_08_1330,task-switching-replication,2021.2.3,59.99696746895231,
1,24,timed,08,standing,switch,congruant,dashed,square,blue,stimuli/dashed-rectangle.png,stimuli/blue-square.png,2,,,,,,,,,,,,,0,23,23,23,,,,,,,,,,,,,,,,,,,,,,,,,,,,,,,,,,,,,,,,,,,,,,,,,,,,,,,,,,,,,,,,,,,,,,,,,,,,,,,,,,,,,,,,,,,,,289.8495829105377,None,,,,,,,,,,,,,,,,,,,,,,,,,,,,,,,,,,,,,,,,,,,,,,,,,,,8010,001,08,2021_Nov_08_1330,task-switching-replication,2021.2.3,59.99696746895231,
1,1,experiment,08,standing,buffer,buffer,solid,square,yellow,stimuli/solid-rectangle.png,stimuli/yellow-square.png,1,,,,,,,,,,,,,,,,,,,,,,,,,0,0,0,0,0,0,0,0,0,0,0,0,,,,,,,,,290.0600039958954,None,2,3.131535053253174,290.0600039958954,None,,,,,,,,,,,,,,,,,,,,,,,,,,,,,,,,,,,,,,,,,,,,,,,,,1636400087.503287,,,,,,,,,,316.7362940311432,None,,,,,,,,,,,,,,,,,,,,,,,,,,,,,,293.2649178504944,None,1,20.203408002853394,293.2649178504944,None,313.5729088783264,None,1,1.148130178451538,313.5729088783264,None,314.8375298976898,None,315.8278498649597,None,1,1,0.7761890888214111,315.8278498649597,None,8010,001,08,2021_Nov_08_1330,task-switching-replication,2021.2.3,59.99696746895231,
1,2,experiment,08,standing,switch,congruant,dashed,triangle,yellow,stimuli/dashed-rectangle.png,stimuli/yellow-triangle.png,1,,,,,,,,,,,,,,,,,,,,,,,,,0,0,0,0,0,0,0,0,0,1,1,1,,,,,,,,,,,,,,,,,,,,,,,,,,,,,,,,,,,,,,,,,,,,,,,,,,,,,,,,,,,,,,,1636400089.2744486,,,,,,,,,,318.5068209171295,None,,,,,,,,,,,,,,,,,,,,,,,,,,,,,,,,,,,,,,,,,,316.9654619693756,None,317.95413184165955,None,1,1,0.4307079315185547,317.95413184165955,None,8010,001,08,2021_Nov_08_1330,task-switching-replication,2021.2.3,59.99696746895231,
1,3,experiment,08,standing,noswitch,incongruant,dashed,square,blue,stimuli/dashed-rectangle.png,stimuli/blue-square.png,2,,,,,,,,,,,,,,,,,,,,,,,,,0,0,0,0,0,0,0,0,0,2,2,2,,,,,,,,,,,,,,,,,,,,,,,,,,,,,,,,,,,,,,,,,,,,,,,,,,,,,,,,,,,,,,,1636400091.0487037,,,,,,,,,,320.2806239128113,None,,,,,,,,,,,,,,,,,,,,,,,,,,,,,,,,,,,,,,,,,,318.73625087738037,None,319.7249548435211,None,2,1,0.4169790744781494,319.7249548435211,None,8010,001,08,2021_Nov_08_1330,task-switching-replication,2021.2.3,59.99696746895231,
1,4,experiment,08,standing,noswitch,congruant,dashed,square,blue,stimuli/dashed-rectangle.png,stimuli/blue-square.png,2,,,,,,,,,,,,,,,,,,,,,,,,,0,0,0,0,0,0,0,0,0,3,3,3,,,,,,,,,,,,,,,,,,,,,,,,,,,,,,,,,,,,,,,,,,,,,,,,,,,,,,,,,,,,,,,1636400092.7008505,,,,,,,,,,321.93337202072144,None,,,,,,,,,,,,,,,,,,,,,,,,,,,,,,,,,,,,,,,,,,320.51005601882935,None,321.49961590766907,None,2,1,0.33742499351501465,321.49961590766907,None,8010,001,08,2021_Nov_08_1330,task-switching-replication,2021.2.3,59.99696746895231,
1,5,experiment,08,standing,switch,congruant,solid,triangle,blue,stimuli/solid-rectangle.png,stimuli/blue-triangle.png,2,,,,,,,,,,,,,,,,,,,,,,,,,0,0,0,0,0,0,0,0,0,4,4,4,,,,,,,,,,,,,,,,,,,,,,,,,,,,,,,,,,,,,,,,,,,,,,,,,,,,,,,,,,,,,,,1636400094.353948,,,,,,,,,,323.5865578651428,None,,,,,,,,,,,,,,,,,,,,,,,,,,,,,,,,,,,,,,,,,,322.1627700328827,None,323.15230989456177,None,2,1,0.31782078742980957,323.15230989456177,None,8010,001,08,2021_Nov_08_1330,task-switching-replication,2021.2.3,59.99696746895231,
1,6,experiment,08,standing,noswitch,incongruant,solid,square,blue,stimuli/solid-rectangle.png,stimuli/blue-square.png,1,,,,,,,,,,,,,,,,,,,,,,,,,0,0,0,0,0,0,0,0,0,5,5,5,,,,,,,,,,,,,,,,,,,,,,,,,,,,,,,,,,,,,,,,,,,,,,,,,,,,,,,,,,,,,,,1636400096.0095546,,,,,,,,,,325.2413148880005,None,,,,,,,,,,,,,,,,,,,,,,,,,,,,,,,,,,,,,,,,,,323.8164629936218,None,324.80564999580383,None,1,1,0.3016998767852783,324.80564999580383,None,8010,001,08,2021_Nov_08_1330,task-switching-replication,2021.2.3,59.99696746895231,
1,7,experiment,08,standing,noswitch,incongruant,solid,triangle,blue,stimuli/solid-rectangle.png,stimuli/blue-triangle.png,2,,,,,,,,,,,,,,,,,,,,,,,,,0,0,0,0,0,0,0,0,0,6,6,6,,,,,,,,,,,,,,,,,,,,,,,,,,,,,,,,,,,,,,,,,,,,,,,,,,,,,,,,,,,,,,,1636400097.8411381,,,,,,,,,,327.07282185554504,None,,,,,,,,,,,,,,,,,,,,,,,,,,,,,,,,,,,,,,,,,,325.4714078903198,None,326.4614248275757,None,2,1,0.47271013259887695,326.4614248275757,None,8010,001,08,2021_Nov_08_1330,task-switching-replication,2021.2.3,59.99696746895231,
1,8,experiment,08,standing,switch,congruant,dashed,triangle,blue,stimuli/dashed-rectangle.png,stimuli/blue-triangle.png,2,,,,,,,,,,,,,,,,,,,,,,,,,0,0,0,0,0,0,0,0,0,7,7,7,,,,,,,,,,,,,,,,,,,,,,,,,,,,,,,,,,,,,,,,,,,,,,,,,,,,,,,,,,,,,,,1636400099.5531003,,,,,,,,,,328.7856159210205,None,,,,,,,,,,,,,,,,,,,,,,,,,,,,,,,,,,,,,,,,,,327.3025300502777,None,328.29225492477417,None,2,1,0.3456611633300781,328.29225492477417,None,8010,001,08,2021_Nov_08_1330,task-switching-replication,2021.2.3,59.99696746895231,
1,9,experiment,08,standing,noswitch,congruant,dashed,square,blue,stimuli/dashed-rectangle.png,stimuli/blue-square.png,2,,,,,,,,,,,,,,,,,,,,,,,,,0,0,0,0,0,0,0,0,0,8,8,8,,,,,0,0,0,0,,,,,,,,,,,,,,,,,,,,,,,,,,,,,,,,,,,,,,,,,,,,,,,,,,,,,,,1636400102.0342054,,,,,,,,,,,,,,,,331.23852384090424,332.2568700313568,331.27192902565,None,,,,,,,,,,,,,,,,,,,,,,,,,,,,,,,,,,329.01495695114136,None,330.00419783592224,None,1,0,1.1583240032196045,330.00419783592224,None,8010,001,08,2021_Nov_08_1330,task-switching-replication,2021.2.3,59.99696746895231,
1,9,experiment,08,standing,noswitch,congruant,dashed,square,blue,stimuli/dashed-rectangle.png,stimuli/blue-square.png,2,,,,,,,,,,,,,,,,,,,,,,,,,0,0,0,0,0,0,0,0,0,8,8,8,,,,,,,,,,,,,,,,,,,,,,,,,,,,,,,,,,,,,,,,,,,,,,,,,,,,,,,,,,,,,,,,,,,,,,,,,336.29998898506165,None,,,,,,,,,,,,,,,,,,,,,,,,,,,,,,,,,,,,,,,,,,,,,,,,,,,8010,001,08,2021_Nov_08_1330,task-switching-replication,2021.2.3,59.99696746895231,
1,10,experiment,08,standing,noswitch,incongruant,dashed,square,yellow,stimuli/dashed-rectangle.png,stimuli/yellow-square.png,1,,,,,,,,,,,,,,,,,,,,,,,,,0,0,0,0,0,0,0,0,0,9,9,9,,,,,,,,,,,,,,,,,,,,,,,,,,,,,,,,,,,,,,,,,,,,,,,,,,,,,,,,,,,,,,,1636400109.457618,,,,,,,,,,338.69021487236023,None,,,,,,,,,,,,,,,,,,,,,,,,,,,,,,,,,,,,,,,,,,336.49706196784973,None,337.48582792282104,None,1,1,1.0860569477081299,337.48582792282104,None,8010,001,08,2021_Nov_08_1330,task-switching-replication,2021.2.3,59.99696746895231,
1,11,experiment,08,standing,switch,congruant,solid,square,yellow,stimuli/solid-rectangle.png,stimuli/yellow-square.png,1,,,,,,,,,,,,,,,,,,,,,,,,,0,0,0,0,0,0,0,0,0,10,10,10,,,,,,,,,,,,,,,,,,,,,,,,,,,,,,,,,,,,,,,,,,,,,,,,,,,,,,,,,,,,,,,1636400111.586082,,,,,,,,,,340.81849694252014,None,,,,,,,,,,,,,,,,,,,,,,,,,,,,,,,,,,,,,,,,,,338.9203510284424,None,339.91032886505127,None,1,1,0.784477949142456,339.91032886505127,None,8010,001,08,2021_Nov_08_1330,task-switching-replication,2021.2.3,59.99696746895231,
1,12,experiment,08,standing,switch,incongruant,dashed,triangle,blue,stimuli/dashed-rectangle.png,stimuli/blue-triangle.png,2,,,,,,,,,,,,,,,,,,,,,,,,,0,0,0,0,0,0,0,0,0,11,11,11,,,,,,,,,,,,,,,,,,,,,,,,,,,,,,,,,,,,,,,,,,,,,,,,,,,,,,,,,,,,,,,1636400113.3570752,,,,,,,,,,342.5895109176636,None,,,,,,,,,,,,,,,,,,,,,,,,,,,,,,,,,,,,,,,,,,341.04779601097107,None,342.03718996047974,None,2,1,0.4369959831237793,342.03718996047974,None,8010,001,08,2021_Nov_08_1330,task-switching-replication,2021.2.3,59.99696746895231,
1,13,experiment,08,standing,switch,incongruant,solid,square,blue,stimuli/solid-rectangle.png,stimuli/blue-square.png,1,,,,,,,,,,,,,,,,,,,,,,,,,0,0,0,0,0,0,0,0,0,12,12,12,0,0,0,0,,,,,,,,,,,,,,,,,,,,,,,,,,,,,,,,,,,,,,,,,,,,,,,,,,,,,,,,,,,1636400115.2466998,,,,,,,,,,,,344.45078790187836,345.50342082977295,344.48391604423523,None,,,,,,,,,,,,,,,,,,,,,,,,,,,,,,,,,,,,,,342.8195128440857,None,343.80882501602173,None,2,0,0.5761420726776123,343.80882501602173,None,8010,001,08,2021_Nov_08_1330,task-switching-replication,2021.2.3,59.99696746895231,
1,13,experiment,08,standing,switch,incongruant,solid,square,blue,stimuli/solid-rectangle.png,stimuli/blue-square.png,1,,,,,,,,,,,,,,,,,,,,,,,,,0,0,0,0,0,0,0,0,0,12,12,12,,,,,,,,,,,,,,,,,,,,,,,,,,,,,,,,,,,,,,,,,,,,,,,,,,,,,,,,,,,,,,,,,,,,,,,,,349.50984501838684,None,,,,,,,,,,,,,,,,,,,,,,,,,,,,,,,,,,,,,,,,,,,,,,,,,,,8010,001,08,2021_Nov_08_1330,task-switching-replication,2021.2.3,59.99696746895231,
1,14,experiment,08,standing,noswitch,incongruant,solid,triangle,blue,stimuli/solid-rectangle.png,stimuli/blue-triangle.png,2,,,,,,,,,,,,,,,,,,,,,,,,,0,0,0,0,0,0,0,0,0,13,13,13,,,,,,,,,,,,,,,,,,,,,,,,,,,,,,,,,,,,,,,,,,,,,,,,,,,,,,,,,,,,,,,1636400122.1930296,,,,,,,,,,351.4254078865051,None,,,,,,,,,,,,,,,,,,,,,,,,,,,,,,,,,,,,,,,,,,349.7065680027008,None,350.69532084465027,None,2,1,0.6045968532562256,350.69532084465027,None,8010,001,08,2021_Nov_08_1330,task-switching-replication,2021.2.3,59.99696746895231,
1,15,experiment,08,standing,noswitch,congruant,solid,triangle,yellow,stimuli/solid-rectangle.png,stimuli/yellow-triangle.png,2,,,,,,,,,,,,,,,,,,,,,,,,,0,0,0,0,0,0,0,0,0,14,14,14,,,,,,,,,,,,,,,,,,,,,,,,,,,,,,,,,,,,,,,,,,,,,,,,,,,,,,,,,,,,,,,1636400124.2012374,,,,,,,,,,353.4336669445038,None,,,,,,,,,,,,,,,,,,,,,,,,,,,,,,,,,,,,,,,,,,351.6545789241791,None,352.6440210342407,None,2,1,0.6639587879180908,352.6440210342407,None,8010,001,08,2021_Nov_08_1330,task-switching-replication,2021.2.3,59.99696746895231,
1,16,experiment,08,standing,noswitch,incongruant,solid,square,yellow,stimuli/solid-rectangle.png,stimuli/yellow-square.png,1,,,,,,,,,,,,,,,,,,,,,,,,,0,0,0,0,0,0,0,0,0,15,15,15,,,,,,,,,,,,,,,,,,,,,,,,,,,,,,,,,,,,,,,,,,,,,,,,,,,,,,,,,,,,,,,1636400126.0306084,,,,,,,,,,355.2625708580017,None,,,,,,,,,,,,,,,,,,,,,,,,,,,,,,,,,,,,,,,,,,353.6631739139557,None,354.6520209312439,None,1,1,0.5077180862426758,354.6520209312439,None,8010,001,08,2021_Nov_08_1330,task-switching-replication,2021.2.3,59.99696746895231,
1,17,experiment,08,standing,noswitch,congruant,solid,square,blue,stimuli/solid-rectangle.png,stimuli/blue-square.png,1,,,,,,,,,,,,,,,,,,,,,,,,,0,0,0,0,0,0,0,0,0,16,16,16,,,,,,,,,,,,,,,,,,,,,,,,,,,,,,,,,,,,,,,,,,,,,,,,,,,,,,,,,,,,,,,1636400127.8009796,,,,,,,,,,357.03352904319763,None,,,,,,,,,,,,,,,,,,,,,,,,,,,,,,,,,,,,,,,,,,355.49169182777405,None,356.4812099933624,None,1,1,0.4384908676147461,356.4812099933624,None,8010,001,08,2021_Nov_08_1330,task-switching-replication,2021.2.3,59.99696746895231,
1,18,experiment,08,standing,switch,incongruant,dashed,square,blue,stimuli/dashed-rectangle.png,stimuli/blue-square.png,2,,,,,,,,,,,,,,,,,,,,,,,,,0,0,0,0,0,0,0,0,0,17,17,17,,,,,,,,,,,,,,,,,,,,,,,,,,,,,,,,,,,,,,,,,,,,,,,,,,,,,,,,,,,,,,,1636400130.0442183,,,,,,,,,,359.276193857193,None,,,,,,,,,,,,,,,,,,,,,,,,,,,,,,,,,,,,,,,,,,357.262531042099,None,358.25085401535034,None,2,1,0.9309189319610596,358.25085401535034,None,8010,001,08,2021_Nov_08_1330,task-switching-replication,2021.2.3,59.99696746895231,
1,19,experiment,08,standing,noswitch,incongruant,dashed,square,yellow,stimuli/dashed-rectangle.png,stimuli/yellow-square.png,1,,,,,,,,,,,,,,,,,,,,,,,,,0,0,0,0,0,0,0,0,0,18,18,18,,,,,,,,,,,,,,,,,,,,,,,,,,,,,,,,,,,,,,,,,,,,,,,,,,,,,,,,,,,,,,,1636400131.9931867,,,,,,,,,,361.22547698020935,None,,,,,,,,,,,,,,,,,,,,,,,,,,,,,,,,,,,,,,,,,,359.50555992126465,None,360.4955189228058,None,1,1,0.6138138771057129,360.4955189228058,None,8010,001,08,2021_Nov_08_1330,task-switching-replication,2021.2.3,59.99696746895231,
1,20,experiment,08,standing,noswitch,congruant,dashed,square,yellow,stimuli/dashed-rectangle.png,stimuli/yellow-square.png,1,,,,,,,,,,,,,,,,,,,,,,,,,0,0,0,0,0,0,0,0,0,19,19,19,,,,,,,,,,,,,,,,,,,,,,,,,,,,,,,,,,,,,,,,,,,,,,,,,,,,,,,,,,,,,,,1636400133.8235664,,,,,,,,,,363.05598998069763,None,,,,,,,,,,,,,,,,,,,,,,,,,,,,,,,,,,,,,,,,,,361.45460987091064,None,362.4442489147186,None,1,1,0.48738718032836914,362.4442489147186,None,8010,001,08,2021_Nov_08_1330,task-switching-replication,2021.2.3,59.99696746895231,
1,21,experiment,08,standing,switch,incongruant,solid,triangle,blue,stimuli/solid-rectangle.png,stimuli/blue-triangle.png,2,,,,,,,,,,,,,,,,,,,,,,,,,0,0,0,0,0,0,0,0,0,20,20,20,,,,,,,,,,,,,,,,,,,,,,,,,,,,,,,,,,,,,,,,,,,,,,,,,,,,,,,,,,,,,,,1636400135.4764512,,,,,,,,,,364.70843601226807,None,,,,,,,,,,,,,,,,,,,,,,,,,,,,,,,,,,,,,,,,,,363.28553104400635,None,364.27143001556396,None,2,1,0.29825901985168457,364.27143001556396,None,8010,001,08,2021_Nov_08_1330,task-switching-replication,2021.2.3,59.99696746895231,
1,22,experiment,08,standing,switch,congruant,dashed,triangle,blue,stimuli/dashed-rectangle.png,stimuli/blue-triangle.png,2,,,,,,,,,,,,,,,,,,,,,,,,,0,0,0,0,0,0,0,0,0,21,21,21,,,,,,,,,,,,,,,,,,,,,,,,,,,,,,,,,,,,,,,,,,,,,,,,,,,,,,,,,,,,,,,1636400137.901409,,,,,,,,,,367.13384199142456,None,,,,,,,,,,,,,,,,,,,,,,,,,,,,,,,,,,,,,,,,,,364.93824887275696,None,365.9281589984894,None,2,1,1.0657069683074951,365.9281589984894,None,8010,001,08,2021_Nov_08_1330,task-switching-replication,2021.2.3,59.99696746895231,
1,23,experiment,08,standing,switch,congruant,solid,triangle,blue,stimuli/solid-rectangle.png,stimuli/blue-triangle.png,2,,,,,,,,,,,,,,,,,,,,,,,,,0,0,0,0,0,0,0,0,0,22,22,22,,,,,,,,,,,,,,,,,,,,,,,,,,,,,,,,,,,,,,,,,,,,,,,,,,,,,,,,,,,,,,,1636400139.9676628,,,,,,,,,,369.2002110481262,None,,,,,,,,,,,,,,,,,,,,,,,,,,,,,,,,,,,,,,,,,,367.362979888916,None,368.35165786743164,None,2,1,0.7141571044921875,368.35165786743164,None,8010,001,08,2021_Nov_08_1330,task-switching-replication,2021.2.3,59.99696746895231,
1,24,experiment,08,standing,noswitch,congruant,solid,triangle,yellow,stimuli/solid-rectangle.png,stimuli/yellow-triangle.png,2,,,,,,,,,,,,,,,,,,,,,,,,,0,0,0,0,0,0,0,0,0,23,23,23,0,0,0,0,,,,,,,,,,,,,,,,,,,,,,,,,,,,,,,,,,,,,,,,,,,,,,,,,,,,,,,,,,,1636400141.9185336,,,,,,,,,,,,371.12289083004,372.1751329898834,371.1548948287964,None,,,,,,,,,,,,,,,,,,,,,,,,,,,,,,,,,,,,,,369.4293668270111,None,370.4183089733124,None,1,0,0.5884718894958496,370.4183089733124,None,8010,001,08,2021_Nov_08_1330,task-switching-replication,2021.2.3,59.99696746895231,
1,24,experiment,08,standing,noswitch,congruant,solid,triangle,yellow,stimuli/solid-rectangle.png,stimuli/yellow-triangle.png,2,,,,,,,,,,,,,,,,,,,,,,,,,0,0,0,0,0,0,0,0,0,23,23,23,,,,,,,,,,,,,,,,,,,,,,,,,,,,,,,,,,,,,,,,,,,,,,,,,,,,,,,,,,,,,,,,,,,,,,,,,376.1814649105072,None,,,,,,,,,,,,,,,,,,,,,,,,,,,,,,,,,,,,,,,,,,,,,,,,,,,8010,001,08,2021_Nov_08_1330,task-switching-replication,2021.2.3,59.99696746895231,
1,25,experiment,08,standing,switch,congruant,dashed,square,blue,stimuli/dashed-rectangle.png,stimuli/blue-square.png,2,,,,,,,,,,,,,,,,,,,,,,,,,0,0,0,0,0,0,0,0,0,24,24,24,,,,,,,,,,,,,,,,,,,,,,,,,,,,,,,,,,,,,,,,,,,,,,,,,,,,,,,,,,,,,,,1636400148.6318731,,,,,,,,,,377.863755941391,None,,,,,,,,,,,,,,,,,,,,,,,,,,,,,,,,,,,,,,,,,,376.37841606140137,None,377.3684730529785,None,2,1,0.3565831184387207,377.3684730529785,None,8010,001,08,2021_Nov_08_1330,task-switching-replication,2021.2.3,59.99696746895231,
1,26,experiment,08,standing,switch,incongruant,solid,square,blue,stimuli/solid-rectangle.png,stimuli/blue-square.png,1,,,,,,,,,,,,,,,,,,,,,,,,,0,0,0,0,0,0,0,0,0,25,25,25,,,,,,,,,,,,,,,,,,,,,,,,,,,,,,,,,,,,,,,,,,,,,,,,,,,,,,,,,,,,,,,1636400150.4077113,,,,,,,,,,379.63936400413513,None,,,,,,,,,,,,,,,,,,,,,,,,,,,,,,,,,,,,,,,,,,378.09337186813354,None,379.08269786834717,None,1,1,0.42807912826538086,379.08269786834717,None,8010,001,08,2021_Nov_08_1330,task-switching-replication,2021.2.3,59.99696746895231,
1,27,experiment,08,standing,noswitch,congruant,solid,square,yellow,stimuli/solid-rectangle.png,stimuli/yellow-square.png,1,,,,,,,,,,,,,,,,,,,,,,,,,0,0,0,0,0,0,0,0,0,26,26,26,,,,,,,,,,,,,,,,,,,,,,,,,,,,,,,,,,,,,,,,,,,,,,,,,,,,,,,,,,,,,,,1636400152.1783662,,,,,,,,,,381.4110059738159,None,,,,,,,,,,,,,,,,,,,,,,,,,,,,,,,,,,,,,,,,,,379.8686499595642,None,380.858078956604,None,1,1,0.4295940399169922,380.858078956604,None,8010,001,08,2021_Nov_08_1330,task-switching-replication,2021.2.3,59.99696746895231,
1,28,experiment,08,standing,noswitch,congruant,solid,square,blue,stimuli/solid-rectangle.png,stimuli/blue-square.png,1,,,,,,,,,,,,,,,,,,,,,,,,,0,0,0,0,0,0,0,0,0,27,27,27,,,,,,,,,,,,,,,,,,,,,,,,,,,,,,,,,,,,,,,,,,,,,,,,,,,,,,,,,,,,,,,1636400153.9501486,,,,,,,,,,383.18276286125183,None,,,,,,,,,,,,,,,,,,,,,,,,,,,,,,,,,,,,,,,,,,381.64095091819763,None,382.6303770542145,None,1,1,0.4562652111053467,382.6303770542145,None,8010,001,08,2021_Nov_08_1330,task-switching-replication,2021.2.3,59.99696746895231,
1,29,experiment,08,standing,switch,congruant,dashed,triangle,yellow,stimuli/dashed-rectangle.png,stimuli/yellow-triangle.png,1,,,,,,,,,,,,,,,,,,,,,,,,,0,0,0,0,0,0,0,0,0,28,28,28,,,,,0,0,0,0,,,,,,,,,,,,,,,,,,,,,,,,,,,,,,,,,,,,,,,,,,,,,,,,,,,,,,,1636400155.8395894,,,,,,,,,,,,,,,,385.0438998937607,386.0629048347473,385.0777268409729,None,,,,,,,,,,,,,,,,,,,,,,,,,,,,,,,,,,383.4119369983673,None,384.4012379646301,None,2,0,0.554034948348999,384.4012379646301,None,8010,001,08,2021_Nov_08_1330,task-switching-replication,2021.2.3,59.99696746895231,
1,29,experiment,08,standing,switch,congruant,dashed,triangle,yellow,stimuli/dashed-rectangle.png,stimuli/yellow-triangle.png,1,,,,,,,,,,,,,,,,,,,,,,,,,0,0,0,0,0,0,0,0,0,28,28,28,,,,,,,,,,,,,,,,,,,,,,,,,,,,,,,,,,,,,,,,,,,,,,,,,,,,,,,,,,,,,,,,,,,,,,,,,390.105437040329,None,,,,,,,,,,,,,,,,,,,,,,,,,,,,,,,,,,,,,,,,,,,,,,,,,,,8010,001,08,2021_Nov_08_1330,task-switching-replication,2021.2.3,59.99696746895231,
1,30,experiment,08,standing,switch,congruant,solid,square,blue,stimuli/solid-rectangle.png,stimuli/blue-square.png,1,,,,,,,,,,,,,,,,,,,,,,,,,0,0,0,0,0,0,0,0,0,29,29,29,0,0,0,0,,,,,,,,,,,,,,,,,,,,,,,,,,,,,,,,,,,,,,,,,,,,,,,,,,,,,,,,,,,1636400162.9675794,,,,,,,,,,,,392.1718589067459,393.1901240348816,392.2047510147095,None,,,,,,,,,,,,,,,,,,,,,,,,,,,,,,,,,,,,,,390.30250096321106,None,391.2917709350586,None,2,0,0.7758951187133789,391.2917709350586,None,8010,001,08,2021_Nov_08_1330,task-switching-replication,2021.2.3,59.99696746895231,
1,30,experiment,08,standing,switch,congruant,solid,square,blue,stimuli/solid-rectangle.png,stimuli/blue-square.png,1,,,,,,,,,,,,,,,,,,,,,,,,,0,0,0,0,0,0,0,0,0,29,29,29,,,,,,,,,,,,,,,,,,,,,,,,,,,,,,,,,,,,,,,,,,,,,,,,,,,,,,,,,,,,,,,,,,,,,,,,,397.2317500114441,None,,,,,,,,,,,,,,,,,,,,,,,,,,,,,,,,,,,,,,,,,,,,,,,,,,,8010,001,08,2021_Nov_08_1330,task-switching-replication,2021.2.3,59.99696746895231,
1,31,experiment,08,standing,noswitch,incongruant,solid,triangle,yellow,stimuli/solid-rectangle.png,stimuli/yellow-triangle.png,2,,,,,,,,,,,,,,,,,,,,,,,,,0,0,0,0,0,0,0,0,0,30,30,30,0,0,0,0,,,,,,,,,,,,,,,,,,,,,,,,,,,,,,,,,,,,,,,,,,,,,,,,,,,,,,,,,,,1636400169.7367136,,,,,,,,,,,,398.940918803215,399.9587559700012,398.9736020565033,None,,,,,,,,,,,,,,,,,,,,,,,,,,,,,,,,,,,,,,397.42909598350525,None,398.41714787483215,None,1,0,0.44652819633483887,398.41714787483215,None,8010,001,08,2021_Nov_08_1330,task-switching-replication,2021.2.3,59.99696746895231,
1,31,experiment,08,standing,noswitch,incongruant,solid,triangle,yellow,stimuli/solid-rectangle.png,stimuli/yellow-triangle.png,2,,,,,,,,,,,,,,,,,,,,,,,,,0,0,0,0,0,0,0,0,0,30,30,30,,,,,,,,,,,,,,,,,,,,,,,,,,,,,,,,,,,,,,,,,,,,,,,,,,,,,,,,,,,,,,,,,,,,,,,,,403.9974138736725,None,,,,,,,,,,,,,,,,,,,,,,,,,,,,,,,,,,,,,,,,,,,,,,,,,,,8010,001,08,2021_Nov_08_1330,task-switching-replication,2021.2.3,59.99696746895231,
1,32,experiment,08,standing,switch,incongruant,dashed,triangle,yellow,stimuli/dashed-rectangle.png,stimuli/yellow-triangle.png,1,,,,,,,,,,,,,,,,,,,,,,,,,0,0,0,0,0,0,0,0,0,31,31,31,,,,,0,0,0,0,,,,,,,,,,,,,,,,,,,,,,,,,,,,,,,,,,,,,,,,,,,,,,,,,,,,,,,1636400176.5036263,,,,,,,,,,,,,,,,405.7077227830887,406.76016187667847,405.74027395248413,None,,,,,,,,,,,,,,,,,,,,,,,,,,,,,,,,,,404.19436287879944,None,405.1838119029999,None,2,0,0.4548671245574951,405.1838119029999,None,8010,001,08,2021_Nov_08_1330,task-switching-replication,2021.2.3,59.99696746895231,
1,32,experiment,08,standing,switch,incongruant,dashed,triangle,yellow,stimuli/dashed-rectangle.png,stimuli/yellow-triangle.png,1,,,,,,,,,,,,,,,,,,,,,,,,,0,0,0,0,0,0,0,0,0,31,31,31,,,,,,,,,,,,,,,,,,,,,,,,,,,,,,,,,,,,,,,,,,,,,,,,,,,,,,,,,,,,,,,,,,,,,,,,,410.76591396331787,None,,,,,,,,,,,,,,,,,,,,,,,,,,,,,,,,,,,,,,,,,,,,,,,,,,,8010,001,08,2021_Nov_08_1330,task-switching-replication,2021.2.3,59.99696746895231,
1,33,experiment,08,standing,switch,congruant,solid,square,yellow,stimuli/solid-rectangle.png,stimuli/yellow-square.png,1,,,,,,,,,,,,,,,,,,,,,,,,,0,0,0,0,0,0,0,0,0,32,32,32,,,,,,,,,,,,,,,,,,,,,,,,,,,,,,,,,,,,,,,,,,,,,,,,,,,,,,,,,,,,,,,1636400183.2133899,,,,,,,,,,412.4462208747864,None,,,,,,,,,,,,,,,,,,,,,,,,,,,,,,,,,,,,,,,,,,410.9629018306732,None,411.9525580406189,None,1,1,0.392305850982666,411.9525580406189,None,8010,001,08,2021_Nov_08_1330,task-switching-replication,2021.2.3,59.99696746895231,
1,34,experiment,08,standing,noswitch,congruant,solid,square,yellow,stimuli/solid-rectangle.png,stimuli/yellow-square.png,1,,,,,,,,,,,,,,,,,,,,,,,,,0,0,0,0,0,0,0,0,0,33,33,33,,,,,,,,,,,,,,,,,,,,,,,,,,,,,,,,,,,,,,,,,,,,,,,,,,,,,,,,,,,,,,,1636400184.9836164,,,,,,,,,,414.2160470485687,None,,,,,,,,,,,,,,,,,,,,,,,,,,,,,,,,,,,,,,,,,,412.6753270626068,None,413.6638798713684,None,1,1,0.4206521511077881,413.6638798713684,None,8010,001,08,2021_Nov_08_1330,task-switching-replication,2021.2.3,59.99696746895231,
1,35,experiment,08,standing,noswitch,incongruant,solid,triangle,blue,stimuli/solid-rectangle.png,stimuli/blue-triangle.png,2,,,,,,,,,,,,,,,,,,,,,,,,,0,0,0,0,0,0,0,0,0,34,34,34,,,,,,,,,,,,,,,,,,,,,,,,,,,,,,,,,,,,,,,,,,,,,,,,,,,,,,,,,,,,,,,1636400186.7543132,,,,,,,,,,415.98623991012573,None,,,,,,,,,,,,,,,,,,,,,,,,,,,,,,,,,,,,,,,,,,414.44538283348083,None,415.43479204177856,None,2,1,0.4474480152130127,415.43479204177856,None,8010,001,08,2021_Nov_08_1330,task-switching-replication,2021.2.3,59.99696746895231,
1,36,experiment,08,standing,switch,incongruant,dashed,triangle,yellow,stimuli/dashed-rectangle.png,stimuli/yellow-triangle.png,1,,,,,,,,,,,,,,,,,,,,,,,,,0,0,0,0,0,0,0,0,0,35,35,35,,,,,,,,,,,,,,,,,,,,,,,,,,,,,,,,,,,,,,,,,,,,,,,,,,,,,,,,,,,,,,,1636400188.5272133,,,,,,,,,,417.7587819099426,None,,,,,,,,,,,,,,,,,,,,,,,,,,,,,,,,,,,,,,,,,,416.2152519226074,None,417.2037739753723,None,1,1,0.4217548370361328,417.2037739753723,None,8010,001,08,2021_Nov_08_1330,task-switching-replication,2021.2.3,59.99696746895231,
1,37,experiment,08,standing,noswitch,congruant,dashed,square,yellow,stimuli/dashed-rectangle.png,stimuli/yellow-square.png,1,,,,,,,,,,,,,,,,,,,,,,,,,0,0,0,0,0,0,0,0,0,36,36,36,,,,,,,,,,,,,,,,,,,,,,,,,,,,,,,,,,,,,,,,,,,,,,,,,,,,,,,,,,,,,,,1636400190.2988224,,,,,,,,,,419.5313458442688,None,,,,,,,,,,,,,,,,,,,,,,,,,,,,,,,,,,,,,,,,,,417.9890470504761,None,418.97925186157227,None,1,1,0.4510822296142578,418.97925186157227,None,8010,001,08,2021_Nov_08_1330,task-switching-replication,2021.2.3,59.99696746895231,
1,38,experiment,08,standing,noswitch,incongruant,dashed,square,blue,stimuli/dashed-rectangle.png,stimuli/blue-square.png,2,,,,,,,,,,,,,,,,,,,,,,,,,0,0,0,0,0,0,0,0,0,37,37,37,,,,,,,,,,,,,,,,,,,,,,,,,,,,,,,,,,,,,,,,,,,,,,,,,,,,,,,,,,,,,,,1636400192.0102684,,,,,,,,,,421.24259996414185,None,,,,,,,,,,,,,,,,,,,,,,,,,,,,,,,,,,,,,,,,,,419.7606179714203,None,420.7494058609009,None,2,1,0.37674403190612793,420.7494058609009,None,8010,001,08,2021_Nov_08_1330,task-switching-replication,2021.2.3,59.99696746895231,
1,39,experiment,08,standing,noswitch,incongruant,dashed,triangle,yellow,stimuli/dashed-rectangle.png,stimuli/yellow-triangle.png,1,,,,,,,,,,,,,,,,,,,,,,,,,0,0,0,0,0,0,0,0,0,38,38,38,,,,,,,,,,,,,,,,,,,,,,,,,,,,,,,,,,,,,,,,,,,,,,,,,,,,,,,,,,,,,,,1636400193.9005158,,,,,,,,,,423.13221192359924,None,,,,,,,,,,,,,,,,,,,,,,,,,,,,,,,,,,,,,,,,,,421.47179985046387,None,422.46089005470276,None,1,1,0.5376708507537842,422.46089005470276,None,8010,001,08,2021_Nov_08_1330,task-switching-replication,2021.2.3,59.99696746895231,
1,40,experiment,08,standing,noswitch,incongruant,dashed,triangle,blue,stimuli/dashed-rectangle.png,stimuli/blue-triangle.png,2,,,,,,,,,,,,,,,,,,,,,,,,,0,0,0,0,0,0,0,0,0,39,39,39,,,,,,,,,,,,,,,,,,,,,,,,,,,,,,,,,,,,,,,,,,,,,,,,,,,,,,,,,,,,,,,1636400195.5529113,,,,,,,,,,424.78502202033997,None,,,,,,,,,,,,,,,,,,,,,,,,,,,,,,,,,,,,,,,,,,423.3614909648895,None,424.3516778945923,None,2,1,0.3326761722564697,424.3516778945923,None,8010,001,08,2021_Nov_08_1330,task-switching-replication,2021.2.3,59.99696746895231,
1,41,experiment,08,standing,noswitch,incongruant,dashed,triangle,yellow,stimuli/dashed-rectangle.png,stimuli/yellow-triangle.png,1,,,,,,,,,,,,,,,,,,,,,,,,,0,0,0,0,0,0,0,0,0,40,40,40,,,,,,,,,,,,,,,,,,,,,,,,,,,,,,,,,,,,,,,,,,,,,,,,,,,,,,,,,,,,,,,1636400197.5632045,,,,,,,,,,426.79517889022827,None,,,,,,,,,,,,,,,,,,,,,,,,,,,,,,,,,,,,,,,,,,425.01410388946533,None,426.003525018692,None,1,1,0.6572589874267578,426.003525018692,None,8010,001,08,2021_Nov_08_1330,task-switching-replication,2021.2.3,59.99696746895231,
1,42,experiment,08,standing,noswitch,incongruant,dashed,triangle,blue,stimuli/dashed-rectangle.png,stimuli/blue-triangle.png,2,,,,,,,,,,,,,,,,,,,,,,,,,0,0,0,0,0,0,0,0,0,41,41,41,,,,,,,,,,,,,,,,,,,,,,,,,,,,,,,,,,,,,,,,,,,,,,,,,,,,,,,,,,,,,,,1636400199.2153175,,,,,,,,,,428.4472818374634,None,,,,,,,,,,,,,,,,,,,,,,,,,,,,,,,,,,,,,,,,,,427.0243949890137,None,428.0138039588928,None,2,1,0.3180229663848877,428.0138039588928,None,8010,001,08,2021_Nov_08_1330,task-switching-replication,2021.2.3,59.99696746895231,
1,43,experiment,08,standing,switch,congruant,solid,triangle,yellow,stimuli/solid-rectangle.png,stimuli/yellow-triangle.png,2,,,,,,,,,,,,,,,,,,,,,,,,,0,0,0,0,0,0,0,0,0,42,42,42,,,,,,,,,,,,,,,,,,,,,,,,,,,,,,,,,,,,,,,,,,,,,,,,,,,,,,,,,,,,,,,1636400201.045368,,,,,,,,,,430.2778968811035,None,,,,,,,,,,,,,,,,,,,,,,,,,,,,,,,,,,,,,,,,,,428.6763608455658,None,429.6663398742676,None,2,1,0.5040481090545654,429.6663398742676,None,8010,001,08,2021_Nov_08_1330,task-switching-replication,2021.2.3,59.99696746895231,
1,44,experiment,08,standing,switch,incongruant,dashed,square,yellow,stimuli/dashed-rectangle.png,stimuli/yellow-square.png,1,,,,,,,,,,,,,,,,,,,,,,,,,0,0,0,0,0,0,0,0,0,43,43,43,,,,,,,,,,,,,,,,,,,,,,,,,,,,,,,,,,,,,,,,,,,,,,,,,,,,,,,,,,,,,,,1636400203.2366538,,,,,,,,,,432.4687418937683,None,,,,,,,,,,,,,,,,,,,,,,,,,,,,,,,,,,,,,,,,,,430.50764298439026,None,431.4971890449524,None,1,1,0.8423218727111816,431.4971890449524,None,8010,001,08,2021_Nov_08_1330,task-switching-replication,2021.2.3,59.99696746895231,
1,45,experiment,08,standing,switch,incongruant,solid,triangle,yellow,stimuli/solid-rectangle.png,stimuli/yellow-triangle.png,2,,,,,,,,,,,,,,,,,,,,,,,,,0,0,0,0,0,0,0,0,0,44,44,44,,,,,,,,,,,,,,,,,,,,,,,,,,,,,,,,,,,,,,,,,,,,,,,,,,,,,,,,,,,,,,,1636400205.719172,,,,,,,,,,434.9510688781738,None,,,,,,,,,,,,,,,,,,,,,,,,,,,,,,,,,,,,,,,,,,432.6982510089874,None,433.6878960132599,None,2,1,1.1617939472198486,433.6878960132599,None,8010,001,08,2021_Nov_08_1330,task-switching-replication,2021.2.3,59.99696746895231,
1,46,experiment,08,standing,switch,congruant,dashed,triangle,blue,stimuli/dashed-rectangle.png,stimuli/blue-triangle.png,2,,,,,,,,,,,,,,,,,,,,,,,,,0,0,0,0,0,0,0,0,0,45,45,45,,,,,,,,,,,,,,,,,,,,,,,,,,,,,,,,,,,,,,,,,,,,,,,,,,,,,,,,,,,,,,,1636400207.668056,,,,,,,,,,436.9005880355835,None,,,,,,,,,,,,,,,,,,,,,,,,,,,,,,,,,,,,,,,,,,435.18057894706726,None,436.1701169013977,None,2,1,0.6022751331329346,436.1701169013977,None,8010,001,08,2021_Nov_08_1330,task-switching-replication,2021.2.3,59.99696746895231,
1,47,experiment,08,standing,switch,congruant,solid,triangle,yellow,stimuli/solid-rectangle.png,stimuli/yellow-triangle.png,2,,,,,,,,,,,,,,,,,,,,,,,,,0,0,0,0,0,0,0,0,0,46,46,46,,,,,,,,,,,,,,,,,,,,,,,,,,,,,,,,,,,,,,,,,,,,,,,,,,,,,,,,,,,,,,,1636400210.0969958,,,,,,,,,,439.33022689819336,None,,,,,,,,,,,,,,,,,,,,,,,,,,,,,,,,,,,,,,,,,,437.12986993789673,None,438.1202349662781,None,2,1,1.1151080131530762,438.1202349662781,None,8010,001,08,2021_Nov_08_1330,task-switching-replication,2021.2.3,59.99696746895231,
1,48,experiment,08,standing,switch,incongruant,dashed,square,yellow,stimuli/dashed-rectangle.png,stimuli/yellow-square.png,1,,,,,,,,,,,,,,,,,,,,,,,,,0,0,0,0,0,0,0,0,0,47,47,47,,,,,,,,,,,,,,,,,,,,,,,,,,,,,,,,,,,,,,,,,,,,,,,,,,,,,,,,,,,,,,,1636400212.052049,,,,,,,,,,441.2839078903198,None,,,,,,,,,,,,,,,,,,,,,,,,,,,,,,,,,,,,,,,,,,439.56175994873047,None,440.55171394348145,None,1,1,0.5736849308013916,440.55171394348145,None,8010,001,08,2021_Nov_08_1330,task-switching-replication,2021.2.3,59.99696746895231,
1,49,experiment,08,standing,switch,congruant,solid,square,yellow,stimuli/solid-rectangle.png,stimuli/yellow-square.png,1,,,,,,,,,,,,,,,,,,,,,,,,,0,0,0,0,0,0,0,0,0,48,48,48,,,,,,,,,,,,,,,,,,,,,,,,,,,,,,,,,,,,,,,,,,,,,,,,,,,,,,,,,,,,,,,1636400214.05944,,,,,,,,,,443.2919399738312,None,,,,,,,,,,,,,,,,,,,,,,,,,,,,,,,,,,,,,,,,,,441.5132360458374,None,442.50230598449707,None,1,1,0.6529390811920166,442.50230598449707,None,8010,001,08,2021_Nov_08_1330,task-switching-replication,2021.2.3,59.99696746895231,
,,,08,,,,,,,,,,,,,,,,,,,,,,,,,,,,,,,,,,0,0,0,0,0,0,0,0,,,,,,,,,,,,,,,,,,,,,,,,,,,,,,,,,,,,,,,,,,,,,,,,,,,,,,,,,,,,,,,,,,,,,,,,,,,,,,,,,,,,,,,,,,,,,,,,,,,,,,,,,,,,,,,,,,,,,,,,,,,,,,,,,8010,001,08,2021_Nov_08_1330,task-switching-replication,2021.2.3,59.99696746895231,
2,1,experiment,08,standing,buffer,buffer,solid,square,blue,stimuli/solid-rectangle.png,stimuli/blue-square.png,1,,,,,,,,,,,,,,,,,,,,,,,,,0,0,0,0,1,0,1,0,0,0,0,0,0,0,0,0,,,,,,,,,,,,,,,,,,,,,,,,,,,,,,,,,,,,,,,,,,,,,,,,,,,,,,,,,,,1636400243.1645145,,,,,,,,,,,,472.36888086795807,473.4214839935303,472.4015018939972,None,,,,,,,,,,,,,,,,,,,,,,,,,,443.5217869281769,None,1,1.8374080657958984,443.5217869281769,None,445.4722719192505,None,1,24.614805221557617,445.4722719192505,None,470.2036888599396,None,471.1922929286957,None,2,0,1.0601940155029297,471.1922929286957,None,8010,001,08,2021_Nov_08_1330,task-switching-replication,2021.2.3,59.99696746895231,
2,1,experiment,08,standing,buffer,buffer,solid,square,blue,stimuli/solid-rectangle.png,stimuli/blue-square.png,1,,,,,,,,,,,,,,,,,,,,,,,,,0,0,0,0,1,0,1,0,0,0,0,0,,,,,,,,,,,,,,,,,,,,,,,,,,,,,,,,,,,,,,,,,,,,,,,,,,,,,,,,,,,,,,,,,,,,,,,,,477.4258508682251,None,,,,,,,,,,,,,,,,,,,,,,,,,,,,,,,,,,,,,,,,,,,,,,,,,,,8010,001,08,2021_Nov_08_1330,task-switching-replication,2021.2.3,59.99696746895231,
2,2,experiment,08,standing,switch,incongruant,dashed,square,blue,stimuli/dashed-rectangle.png,stimuli/blue-square.png,2,,,,,,,,,,,,,,,,,,,,,,,,,0,0,0,0,1,0,1,0,0,1,1,1,,,,,,,,,,,,,,,,,,,,,,,,,,,,,,,,,,,,,,,,,,,,,,,,,,,,,,,,,,,,,,,1636400250.2301445,,,,,,,,,,479.4627139568329,None,,,,,,,,,,,,,,,,,,,,,,,,,,,,,,,,,,,,,,,,,,477.6228220462799,None,478.6135368347168,None,2,1,0.7107210159301758,478.6135368347168,None,8010,001,08,2021_Nov_08_1330,task-switching-replication,2021.2.3,59.99696746895231,
2,3,experiment,08,standing,noswitch,congruant,dashed,triangle,blue,stimuli/dashed-rectangle.png,stimuli/blue-triangle.png,2,,,,,,,,,,,,,,,,,,,,,,,,,0,0,0,0,1,0,1,0,0,2,2,2,,,,,,,,,,,,,,,,,,,,,,,,,,,,,,,,,,,,,,,,,,,,,,,,,,,,,,,,,,,,,,,1636400252.0615907,,,,,,,,,,481.2941060066223,None,,,,,,,,,,,,,,,,,,,,,,,,,,,,,,,,,,,,,,,,,,479.69212794303894,None,480.68230295181274,None,2,1,0.4819769859313965,480.68230295181274,None,8010,001,08,2021_Nov_08_1330,task-switching-replication,2021.2.3,59.99696746895231,
2,4,experiment,08,standing,noswitch,congruant,dashed,square,blue,stimuli/dashed-rectangle.png,stimuli/blue-square.png,2,,,,,,,,,,,,,,,,,,,,,,,,,0,0,0,0,1,0,1,0,0,3,3,3,,,,,,,,,,,,,,,,,,,,,,,,,,,,,,,,,,,,,,,,,,,,,,,,,,,,,,,,,,,,,,,1636400253.7734115,,,,,,,,,,483.00591588020325,None,,,,,,,,,,,,,,,,,,,,,,,,,,,,,,,,,,,,,,,,,,481.5232729911804,None,482.51288294792175,None,2,1,0.4022219181060791,482.51288294792175,None,8010,001,08,2021_Nov_08_1330,task-switching-replication,2021.2.3,59.99696746895231,
2,5,experiment,08,standing,noswitch,congruant,dashed,triangle,blue,stimuli/dashed-rectangle.png,stimuli/blue-triangle.png,2,,,,,,,,,,,,,,,,,,,,,,,,,0,0,0,0,1,0,1,0,0,4,4,4,,,,,,,,,,,,,,,,,,,,,,,,,,,,,,,,,,,,,,,,,,,,,,,,,,,,,,,,,,,,,,,1636400255.4855444,,,,,,,,,,484.7181420326233,None,,,,,,,,,,,,,,,,,,,,,,,,,,,,,,,,,,,,,,,,,,483.2354300022125,None,484.2249610424042,None,2,1,0.3932168483734131,484.2249610424042,None,8010,001,08,2021_Nov_08_1330,task-switching-replication,2021.2.3,59.99696746895231,
2,6,experiment,08,standing,noswitch,incongruant,dashed,triangle,yellow,stimuli/dashed-rectangle.png,stimuli/yellow-triangle.png,1,,,,,,,,,,,,,,,,,,,,,,,,,0,0,0,0,1,0,1,0,0,5,5,5,,,,,,,,,,,,,,,,,,,,,,,,,,,,,,,,,,,,,,,,,,,,,,,,,,,,,,,,,,,,,,,1636400257.493435,,,,,,,,,,486.7252700328827,None,,,,,,,,,,,,,,,,,,,,,,,,,,,,,,,,,,,,,,,,,,484.9472188949585,None,485.9364378452301,None,1,1,0.6398417949676514,485.9364378452301,None,8010,001,08,2021_Nov_08_1330,task-switching-replication,2021.2.3,59.99696746895231,
2,7,experiment,08,standing,switch,congruant,solid,square,blue,stimuli/solid-rectangle.png,stimuli/blue-square.png,1,,,,,,,,,,,,,,,,,,,,,,,,,0,0,0,0,1,0,1,0,0,6,6,6,,,,,,,,,,,,,,,,,,,,,,,,,,,,,,,,,,,,,,,,,,,,,,,,,,,,,,,,,,,,,,,1636400259.499563,,,,,,,,,,488.73209285736084,None,,,,,,,,,,,,,,,,,,,,,,,,,,,,,,,,,,,,,,,,,,486.9545030593872,None,487.94321489334106,None,1,1,0.6888570785522461,487.94321489334106,None,8010,001,08,2021_Nov_08_1330,task-switching-replication,2021.2.3,59.99696746895231,
2,8,experiment,08,standing,noswitch,incongruant,solid,triangle,yellow,stimuli/solid-rectangle.png,stimuli/yellow-triangle.png,2,,,,,,,,,,,,,,,,,,,,,,,,,0,0,0,0,1,0,1,0,0,7,7,7,,,,,,,,,,,,,,,,,,,,,,,,,,,,,,,,,,,,,,,,,,,,,,,,,,,,,,,,,,,,,,,1636400261.8054852,,,,,,,,,,491.0373010635376,None,,,,,,,,,,,,,,,,,,,,,,,,,,,,,,,,,,,,,,,,,,488.96112298965454,None,489.95056986808777,None,2,1,0.9379692077636719,489.95056986808777,None,8010,001,08,2021_Nov_08_1330,task-switching-replication,2021.2.3,59.99696746895231,
2,9,experiment,08,standing,noswitch,incongruant,solid,square,blue,stimuli/solid-rectangle.png,stimuli/blue-square.png,1,,,,,,,,,,,,,,,,,,,,,,,,,0,0,0,0,1,0,1,0,0,8,8,8,,,,,,,,,,,,,,,,,,,,,,,,,,,,,,,,,,,,,,,,,,,,,,,,,,,,,,,,,,,,,,,1636400263.63643,,,,,,,,,,492.8686349391937,None,,,,,,,,,,,,,,,,,,,,,,,,,,,,,,,,,,,,,,,,,,491.2670569419861,None,492.2571539878845,None,1,1,0.49773597717285156,492.2571539878845,None,8010,001,08,2021_Nov_08_1330,task-switching-replication,2021.2.3,59.99696746895231,
2,10,experiment,08,standing,switch,congruant,dashed,square,yellow,stimuli/dashed-rectangle.png,stimuli/yellow-square.png,1,,,,,,,,,,,,,,,,,,,,,,,,,0,0,0,0,1,0,1,0,0,9,9,9,,,,,,,,,,,,,,,,,,,,,,,,,,,,,,,,,,,,,,,,,,,,,,,,,,,,,,,,,,,,,,,1636400265.4668632,,,,,,,,,,494.6994969844818,None,,,,,,,,,,,,,,,,,,,,,,,,,,,,,,,,,,,,,,,,,,493.09869599342346,None,494.0877058506012,None,1,1,0.472196102142334,494.0877058506012,None,8010,001,08,2021_Nov_08_1330,task-switching-replication,2021.2.3,59.99696746895231,
2,11,experiment,08,standing,noswitch,congruant,dashed,square,yellow,stimuli/dashed-rectangle.png,stimuli/yellow-square.png,1,,,,,,,,,,,,,,,,,,,,,,,,,0,0,0,0,1,0,1,0,0,10,10,10,,,,,,,,,,,,,,,,,,,,,,,,,,,,,,,,,,,,,,,,,,,,,,,,,,,,,,,,,,,,,,,1636400267.1798794,,,,,,,,,,496.41253304481506,None,,,,,,,,,,,,,,,,,,,,,,,,,,,,,,,,,,,,,,,,,,494.92875504493713,None,495.9192318916321,None,1,1,0.38770508766174316,495.9192318916321,None,8010,001,08,2021_Nov_08_1330,task-switching-replication,2021.2.3,59.99696746895231,
2,12,experiment,08,standing,noswitch,congruant,dashed,triangle,yellow,stimuli/dashed-rectangle.png,stimuli/yellow-triangle.png,1,,,,,,,,,,,,,,,,,,,,,,,,,0,0,0,0,1,0,1,0,0,11,11,11,,,,,,,,,,,,,,,,,,,,,,,,,,,,,,,,,,,,,,,,,,,,,,,,,,,,,,,,,,,,,,,1636400269.0106616,,,,,,,,,,498.2433760166168,None,,,,,,,,,,,,,,,,,,,,,,,,,,,,,,,,,,,,,,,,,,496.6418478488922,None,497.6315188407898,None,1,1,0.5184211730957031,497.6315188407898,None,8010,001,08,2021_Nov_08_1330,task-switching-replication,2021.2.3,59.99696746895231,
2,13,experiment,08,standing,switch,incongruant,solid,triangle,blue,stimuli/solid-rectangle.png,stimuli/blue-triangle.png,2,,,,,,,,,,,,,,,,,,,,,,,,,0,0,0,0,1,0,1,0,0,12,12,12,,,,,,,,,,,,,,,,,,,,,,,,,,,,,,,,,,,,,,,,,,,,,,,,,,,,,,,,,,,,,,,1636400270.7234457,,,,,,,,,,499.95577597618103,None,,,,,,,,,,,,,,,,,,,,,,,,,,,,,,,,,,,,,,,,,,498.4729640483856,None,499.4627139568329,None,2,1,0.39441895484924316,499.4627139568329,None,8010,001,08,2021_Nov_08_1330,task-switching-replication,2021.2.3,59.99696746895231,
2,14,experiment,08,standing,switch,incongruant,dashed,triangle,yellow,stimuli/dashed-rectangle.png,stimuli/yellow-triangle.png,1,,,,,,,,,,,,,,,,,,,,,,,,,0,0,0,0,1,0,1,0,0,13,13,13,,,,,0,0,0,0,,,,,,,,,,,,,,,,,,,,,,,,,,,,,,,,,,,,,,,,,,,,,,,,,,,,,,,1636400272.492498,,,,,,,,,,,,,,,,501.6966749429703,502.71458888053894,501.73042392730713,None,,,,,,,,,,,,,,,,,,,,,,,,,,,,,,,,,,500.18457794189453,None,501.17289185523987,None,2,0,0.45023298263549805,501.17289185523987,None,8010,001,08,2021_Nov_08_1330,task-switching-replication,2021.2.3,59.99696746895231,
2,14,experiment,08,standing,switch,incongruant,dashed,triangle,yellow,stimuli/dashed-rectangle.png,stimuli/yellow-triangle.png,1,,,,,,,,,,,,,,,,,,,,,,,,,0,0,0,0,1,0,1,0,0,13,13,13,,,,,,,,,,,,,,,,,,,,,,,,,,,,,,,,,,,,,,,,,,,,,,,,,,,,,,,,,,,,,,,,,,,,,,,,,506.7538938522339,None,,,,,,,,,,,,,,,,,,,,,,,,,,,,,,,,,,,,,,,,,,,,,,,,,,,8010,001,08,2021_Nov_08_1330,task-switching-replication,2021.2.3,59.99696746895231,
2,15,experiment,08,standing,switch,congruant,solid,square,yellow,stimuli/solid-rectangle.png,stimuli/yellow-square.png,1,,,,,,,,,,,,,,,,,,,,,,,,,0,0,0,0,1,0,1,0,0,14,14,14,,,,,,,,,,,,,,,,,,,,,,,,,,,,,,,,,,,,,,,,,,,,,,,,,,,,,,,,,,,,,,,1636400279.43652,,,,,,,,,,508.66846990585327,None,,,,,,,,,,,,,,,,,,,,,,,,,,,,,,,,,,,,,,,,,,506.95050597190857,None,507.939199924469,None,1,1,0.6355690956115723,507.939199924469,None,8010,001,08,2021_Nov_08_1330,task-switching-replication,2021.2.3,59.99696746895231,
2,16,experiment,08,standing,noswitch,congruant,solid,square,blue,stimuli/solid-rectangle.png,stimuli/blue-square.png,1,,,,,,,,,,,,,,,,,,,,,,,,,0,0,0,0,1,0,1,0,0,15,15,15,,,,,,,,,,,,,,,,,,,,,,,,,,,,,,,,,,,,,,,,,,,,,,,,,,,,,,,,,,,,,,,1636400281.1480806,,,,,,,,,,510.38070702552795,None,,,,,,,,,,,,,,,,,,,,,,,,,,,,,,,,,,,,,,,,,,508.8978488445282,None,509.8872299194336,None,1,1,0.38357996940612793,509.8872299194336,None,8010,001,08,2021_Nov_08_1330,task-switching-replication,2021.2.3,59.99696746895231,
2,17,experiment,08,standing,switch,congruant,dashed,square,yellow,stimuli/dashed-rectangle.png,stimuli/yellow-square.png,1,,,,,,,,,,,,,,,,,,,,,,,,,0,0,0,0,1,0,1,0,0,16,16,16,,,,,,,,,,,,,,,,,,,,,,,,,,,,,,,,,,,,,,,,,,,,,,,,,,,,,,,,,,,,,,,1636400283.1552432,,,,,,,,,,512.3876349925995,None,,,,,,,,,,,,,,,,,,,,,,,,,,,,,,,,,,,,,,,,,,510.6099519729614,None,511.59897089004517,None,1,1,0.655832052230835,511.59897089004517,None,8010,001,08,2021_Nov_08_1330,task-switching-replication,2021.2.3,59.99696746895231,
2,18,experiment,08,standing,switch,incongruant,solid,triangle,blue,stimuli/solid-rectangle.png,stimuli/blue-triangle.png,2,,,,,,,,,,,,,,,,,,,,,,,,,0,0,0,0,1,0,1,0,0,17,17,17,,,,,,,,,,,,,,,,,,,,,,,,,,,,,,,,,,,,,,,,,,,,,,,,,,,,,,,,,,,,,,,1636400285.0463705,,,,,,,,,,514.2781920433044,None,,,,,,,,,,,,,,,,,,,,,,,,,,,,,,,,,,,,,,,,,,512.6166589260101,None,513.6050410270691,None,2,1,0.5392229557037354,513.6050410270691,None,8010,001,08,2021_Nov_08_1330,task-switching-replication,2021.2.3,59.99696746895231,
2,19,experiment,08,standing,noswitch,incongruant,solid,square,yellow,stimuli/solid-rectangle.png,stimuli/yellow-square.png,1,,,,,,,,,,,,,,,,,,,,,,,,,0,0,0,0,1,0,1,0,0,18,18,18,,,,,,,,,,,,,,,,,,,,,,,,,,,,,,,,,,,,,,,,,,,,,,,,,,,,,,,,,,,,,,,1636400286.9992483,,,,,,,,,,516.2308969497681,None,,,,,,,,,,,,,,,,,,,,,,,,,,,,,,,,,,,,,,,,,,514.5080850124359,None,515.4981758594513,None,1,1,0.5895559787750244,515.4981758594513,None,8010,001,08,2021_Nov_08_1330,task-switching-replication,2021.2.3,59.99696746895231,
2,20,experiment,08,standing,switch,incongruant,dashed,square,blue,stimuli/dashed-rectangle.png,stimuli/blue-square.png,2,,,,,,,,,,,,,,,,,,,,,,,,,0,0,0,0,1,0,1,0,0,19,19,19,,,,,,,,,,,,,,,,,,,,,,,,,,,,,,,,,,,,,,,,,,,,,,,,,,,,,,,,,,,,,,,1636400289.6033149,,,,,,,,,,518.8350229263306,None,,,,,,,,,,,,,,,,,,,,,,,,,,,,,,,,,,,,,,,,,,516.460587978363,None,517.4525768756866,None,2,1,1.2486581802368164,517.4525768756866,None,8010,001,08,2021_Nov_08_1330,task-switching-replication,2021.2.3,59.99696746895231,
2,21,experiment,08,standing,switch,incongruant,solid,square,blue,stimuli/solid-rectangle.png,stimuli/blue-square.png,1,,,,,,,,,,,,,,,,,,,,,,,,,0,0,0,0,1,0,1,0,0,20,20,20,,,,,,,,,,,,,,,,,,,,,,,,,,,,,,,,,,,,,,,,,,,,,,,,,,,,,,,,,,,,,,,1636400291.732559,,,,,,,,,,520.9647450447083,None,,,,,,,,,,,,,,,,,,,,,,,,,,,,,,,,,,,,,,,,,,519.0656468868256,None,520.0544600486755,None,1,1,0.7561929225921631,520.0544600486755,None,8010,001,08,2021_Nov_08_1330,task-switching-replication,2021.2.3,59.99696746895231,
2,22,experiment,08,standing,noswitch,congruant,solid,square,yellow,stimuli/solid-rectangle.png,stimuli/yellow-square.png,1,,,,,,,,,,,,,,,,,,,,,,,,,0,0,0,0,1,0,1,0,0,21,21,21,,,,,,,,,,,,,,,,,,,,,,,,,,,,,,,,,,,,,,,,,,,,,,,,,,,,,,,,,,,,,,,1636400293.6226459,,,,,,,,,,522.8554239273071,None,,,,,,,,,,,,,,,,,,,,,,,,,,,,,,,,,,,,,,,,,,521.1943678855896,None,522.1842849254608,None,1,1,0.524583101272583,522.1842849254608,None,8010,001,08,2021_Nov_08_1330,task-switching-replication,2021.2.3,59.99696746895231,
2,23,experiment,08,standing,switch,incongruant,dashed,triangle,blue,stimuli/dashed-rectangle.png,stimuli/blue-triangle.png,2,,,,,,,,,,,,,,,,,,,,,,,,,0,0,0,0,1,0,1,0,0,22,22,22,,,,,,,,,,,,,,,,,,,,,,,,,,,,,,,,,,,,,,,,,,,,,,,,,,,,,,,,,,,,,,,1636400295.337808,,,,,,,,,,524.5699899196625,None,,,,,,,,,,,,,,,,,,,,,,,,,,,,,,,,,,,,,,,,,,523.084844827652,None,524.0745990276337,None,2,1,0.3512148857116699,524.0745990276337,None,8010,001,08,2021_Nov_08_1330,task-switching-replication,2021.2.3,59.99696746895231,
2,24,experiment,08,standing,noswitch,congruant,dashed,triangle,blue,stimuli/dashed-rectangle.png,stimuli/blue-triangle.png,2,,,,,,,,,,,,,,,,,,,,,,,,,0,0,0,0,1,0,1,0,0,23,23,23,,,,,,,,,,,,,,,,,,,,,,,,,,,,,,,,,,,,,,,,,,,,,,,,,,,,,,,,,,,,,,,1636400297.2262602,,,,,,,,,,526.4587008953094,None,,,,,,,,,,,,,,,,,,,,,,,,,,,,,,,,,,,,,,,,,,524.7995190620422,None,525.7880499362946,None,2,1,0.5240011215209961,525.7880499362946,None,8010,001,08,2021_Nov_08_1330,task-switching-replication,2021.2.3,59.99696746895231,
2,25,experiment,08,standing,noswitch,incongruant,dashed,square,yellow,stimuli/dashed-rectangle.png,stimuli/yellow-square.png,1,,,,,,,,,,,,,,,,,,,,,,,,,0,0,0,0,1,0,1,0,0,24,24,24,,,,,,,,,,,,,,,,,,,,,,,,,,,,,,,,,,,,,,,,,,,,,,,,,,,,,,,,,,,,,,,1636400299.2340012,,,,,,,,,,528.4660139083862,None,,,,,,,,,,,,,,,,,,,,,,,,,,,,,,,,,,,,,,,,,,526.687793970108,None,527.6764299869537,None,1,1,0.6454589366912842,527.6764299869537,None,8010,001,08,2021_Nov_08_1330,task-switching-replication,2021.2.3,59.99696746895231,
2,26,experiment,08,standing,noswitch,incongruant,dashed,triangle,blue,stimuli/dashed-rectangle.png,stimuli/blue-triangle.png,2,,,,,,,,,,,,,,,,,,,,,,,,,0,0,0,0,1,0,1,0,0,25,25,25,,,,,,,,,,,,,,,,,,,,,,,,,,,,,,,,,,,,,,,,,,,,,,,,,,,,,,,,,,,,,,,1636400301.1225538,,,,,,,,,,530.3542158603668,None,,,,,,,,,,,,,,,,,,,,,,,,,,,,,,,,,,,,,,,,,,528.6954989433289,None,529.6840448379517,None,2,1,0.5417180061340332,529.6840448379517,None,8010,001,08,2021_Nov_08_1330,task-switching-replication,2021.2.3,59.99696746895231,
2,27,experiment,08,standing,noswitch,congruant,dashed,square,blue,stimuli/dashed-rectangle.png,stimuli/blue-square.png,2,,,,,,,,,,,,,,,,,,,,,,,,,0,0,0,0,1,0,1,0,0,26,26,26,,,,,0,0,0,0,,,,,,,,,,,,,,,,,,,,,,,,,,,,,,,,,,,,,,,,,,,,,,,,,,,,,,,1636400303.2474334,,,,,,,,,,,,,,,,532.4516898393631,533.4715700149536,532.4846329689026,None,,,,,,,,,,,,,,,,,,,,,,,,,,,,,,,,,,530.5835919380188,None,531.5723040103912,None,1,0,0.8074018955230713,531.5723040103912,None,8010,001,08,2021_Nov_08_1330,task-switching-replication,2021.2.3,59.99696746895231,
2,27,experiment,08,standing,noswitch,congruant,dashed,square,blue,stimuli/dashed-rectangle.png,stimuli/blue-square.png,2,,,,,,,,,,,,,,,,,,,,,,,,,0,0,0,0,1,0,1,0,0,26,26,26,,,,,,,,,,,,,,,,,,,,,,,,,,,,,,,,,,,,,,,,,,,,,,,,,,,,,,,,,,,,,,,,,,,,,,,,,537.5129609107971,None,,,,,,,,,,,,,,,,,,,,,,,,,,,,,,,,,,,,,,,,,,,,,,,,,,,8010,001,08,2021_Nov_08_1330,task-switching-replication,2021.2.3,59.99696746895231,
2,28,experiment,08,standing,switch,congruant,solid,triangle,blue,stimuli/solid-rectangle.png,stimuli/blue-triangle.png,2,,,,,,,,,,,,,,,,,,,,,,,,,0,0,0,0,1,0,1,0,0,27,27,27,,,,,,,,,,,,,,,,,,,,,,,,,,,,,,,,,,,,,,,,,,,,,,,,,,,,,,,,,,,,,,,1636400309.9599488,,,,,,,,,,539.1919310092926,None,,,,,,,,,,,,,,,,,,,,,,,,,,,,,,,,,,,,,,,,,,537.7099640369415,None,538.6993899345398,None,2,1,0.3916020393371582,538.6993899345398,None,8010,001,08,2021_Nov_08_1330,task-switching-replication,2021.2.3,59.99696746895231,
2,29,experiment,08,standing,noswitch,incongruant,solid,square,blue,stimuli/solid-rectangle.png,stimuli/blue-square.png,1,,,,,,,,,,,,,,,,,,,,,,,,,0,0,0,0,1,0,1,0,0,28,28,28,,,,,,,,,,,,,,,,,,,,,,,,,,,,,,,,,,,,,,,,,,,,,,,,,,,,,,,,,,,,,,,1636400311.8523803,,,,,,,,,,541.0842099189758,None,,,,,,,,,,,,,,,,,,,,,,,,,,,,,,,,,,,,,,,,,,539.421452999115,None,540.410887002945,None,1,1,0.5399038791656494,540.410887002945,None,8010,001,08,2021_Nov_08_1330,task-switching-replication,2021.2.3,59.99696746895231,
2,30,experiment,08,standing,switch,incongruant,dashed,square,blue,stimuli/dashed-rectangle.png,stimuli/blue-square.png,2,,,,,,,,,,,,,,,,,,,,,,,,,0,0,0,0,1,0,1,0,0,29,29,29,,,,,,,,,,,,,,,,,,,,,,,,,,,,,,,,,,,,,,,,,,,,,,,,,,,,,,,,,,,,,,,1636400313.9811492,,,,,,,,,,543.2130079269409,None,,,,,,,,,,,,,,,,,,,,,,,,,,,,,,,,,,,,,,,,,,541.3139889240265,None,542.3044989109039,None,2,1,0.7746250629425049,542.3044989109039,None,8010,001,08,2021_Nov_08_1330,task-switching-replication,2021.2.3,59.99696746895231,
2,31,experiment,08,standing,switch,congruant,solid,triangle,yellow,stimuli/solid-rectangle.png,stimuli/yellow-triangle.png,2,,,,,,,,,,,,,,,,,,,,,,,,,0,0,0,0,1,0,1,0,0,30,30,30,,,,,,,,,,,,,,,,,,,,,,,,,,,,,,,,,,,,,,,,,,,,,,,,,,,,,,,,,,,,,,,1636400315.9306722,,,,,,,,,,545.1631760597229,None,,,,,,,,,,,,,,,,,,,,,,,,,,,,,,,,,,,,,,,,,,543.4426748752594,None,544.4327619075775,None,2,1,0.6091439723968506,544.4327619075775,None,8010,001,08,2021_Nov_08_1330,task-switching-replication,2021.2.3,59.99696746895231,
2,32,experiment,08,standing,switch,incongruant,dashed,triangle,yellow,stimuli/dashed-rectangle.png,stimuli/yellow-triangle.png,1,,,,,,,,,,,,,,,,,,,,,,,,,0,0,0,0,1,0,1,0,0,31,31,31,,,,,,,,,,,,,,,,,,,,,,,,,,,,,,,,,,,,,,,,,,,,,,,,,,,,,,,,,,,,,,,1636400317.82306,,,,,,,,,,547.0547828674316,None,,,,,,,,,,,,,,,,,,,,,,,,,,,,,,,,,,,,,,,,,,545.3924338817596,None,546.3820588588715,None,1,1,0.5435559749603271,546.3820588588715,None,8010,001,08,2021_Nov_08_1330,task-switching-replication,2021.2.3,59.99696746895231,
2,33,experiment,08,standing,switch,congruant,solid,square,yellow,stimuli/solid-rectangle.png,stimuli/yellow-square.png,1,,,,,,,,,,,,,,,,,,,,,,,,,0,0,0,0,1,0,1,0,0,32,32,32,0,0,0,0,,,,,,,,,,,,,,,,,,,,,,,,,,,,,,,,,,,,,,,,,,,,,,,,,,,,,,,,,,,1636400319.8921082,,,,,,,,,,,,549.0964719057083,550.1479759216309,549.1285829544067,None,,,,,,,,,,,,,,,,,,,,,,,,,,,,,,,,,,,,,,547.2843248844147,None,548.2744629383087,None,2,0,0.7105469703674316,548.2744629383087,None,8010,001,08,2021_Nov_08_1330,task-switching-replication,2021.2.3,59.99696746895231,
2,33,experiment,08,standing,switch,congruant,solid,square,yellow,stimuli/solid-rectangle.png,stimuli/yellow-square.png,1,,,,,,,,,,,,,,,,,,,,,,,,,0,0,0,0,1,0,1,0,0,32,32,32,,,,,,,,,,,,,,,,,,,,,,,,,,,,,,,,,,,,,,,,,,,,,,,,,,,,,,,,,,,,,,,,,,,,,,,,,554.154284954071,None,,,,,,,,,,,,,,,,,,,,,,,,,,,,,,,,,,,,,,,,,,,,,,,,,,,8010,001,08,2021_Nov_08_1330,task-switching-replication,2021.2.3,59.99696746895231,
2,34,experiment,08,standing,switch,congruant,dashed,square,yellow,stimuli/dashed-rectangle.png,stimuli/yellow-square.png,1,,,,,,,,,,,,,,,,,,,,,,,,,0,0,0,0,1,0,1,0,0,33,33,33,,,,,,,,,,,,,,,,,,,,,,,,,,,,,,,,,,,,,,,,,,,,,,,,,,,,,,,,,,,,,,,1636400326.9569178,,,,,,,,,,556.1893420219421,None,,,,,,,,,,,,,,,,,,,,,,,,,,,,,,,,,,,,,,,,,,554.3514139652252,None,555.3411588668823,None,1,1,0.7367911338806152,555.3411588668823,None,8010,001,08,2021_Nov_08_1330,task-switching-replication,2021.2.3,59.99696746895231,
2,35,experiment,08,standing,switch,incongruant,solid,triangle,yellow,stimuli/solid-rectangle.png,stimuli/yellow-triangle.png,2,,,,,,,,,,,,,,,,,,,,,,,,,0,0,0,0,1,0,1,0,0,34,34,34,,,,,,,,,,,,,,,,,,,,,,,,,,,,,,,,,,,,,,,,,,,,,,,,,,,,,,,,,,,,,,,1636400329.146685,,,,,,,,,,558.3783650398254,None,,,,,,,,,,,,,,,,,,,,,,,,,,,,,,,,,,,,,,,,,,556.418447971344,None,557.4079978466034,None,2,1,0.8415558338165283,557.4079978466034,None,8010,001,08,2021_Nov_08_1330,task-switching-replication,2021.2.3,59.99696746895231,
2,36,experiment,08,standing,noswitch,incongruant,solid,square,blue,stimuli/solid-rectangle.png,stimuli/blue-square.png,1,,,,,,,,,,,,,,,,,,,,,,,,,0,0,0,0,1,0,1,0,0,35,35,35,,,,,,,,,,,,,,,,,,,,,,,,,,,,,,,,,,,,,,,,,,,,,,,,,,,,,,,,,,,,,,,1636400331.2179937,,,,,,,,,,560.4498319625854,None,,,,,,,,,,,,,,,,,,,,,,,,,,,,,,,,,,,,,,,,,,558.6074879169464,None,559.598062992096,None,1,1,0.7132959365844727,559.598062992096,None,8010,001,08,2021_Nov_08_1330,task-switching-replication,2021.2.3,59.99696746895231,
2,37,experiment,08,standing,switch,congruant,dashed,triangle,yellow,stimuli/dashed-rectangle.png,stimuli/yellow-triangle.png,1,,,,,,,,,,,,,,,,,,,,,,,,,0,0,0,0,1,0,1,0,0,36,36,36,,,,,0,0,0,0,,,,,,,,,,,,,,,,,,,,,,,,,,,,,,,,,,,,,,,,,,,,,,,,,,,,,,,1636400332.994946,,,,,,,,,,,,,,,,562.1993118524551,563.2179019451141,562.232400894165,None,,,,,,,,,,,,,,,,,,,,,,,,,,,,,,,,,,560.679605960846,None,561.6695129871368,None,2,0,0.4133930206298828,561.6695129871368,None,8010,001,08,2021_Nov_08_1330,task-switching-replication,2021.2.3,59.99696746895231,
2,37,experiment,08,standing,switch,congruant,dashed,triangle,yellow,stimuli/dashed-rectangle.png,stimuli/yellow-triangle.png,1,,,,,,,,,,,,,,,,,,,,,,,,,0,0,0,0,1,0,1,0,0,36,36,36,,,,,,,,,,,,,,,,,,,,,,,,,,,,,,,,,,,,,,,,,,,,,,,,,,,,,,,,,,,,,,,,,,,,,,,,,567.2598340511322,None,,,,,,,,,,,,,,,,,,,,,,,,,,,,,,,,,,,,,,,,,,,,,,,,,,,8010,001,08,2021_Nov_08_1330,task-switching-replication,2021.2.3,59.99696746895231,
2,38,experiment,08,standing,switch,incongruant,solid,triangle,blue,stimuli/solid-rectangle.png,stimuli/blue-triangle.png,2,,,,,,,,,,,,,,,,,,,,,,,,,0,0,0,0,1,0,1,0,0,37,37,37,,,,,,,,,,,,,,,,,,,,,,,,,,,,,,,,,,,,,,,,,,,,,,,,,,,,,,,,,,,,,,,1636400339.9437861,,,,,,,,,,569.1764578819275,None,,,,,,,,,,,,,,,,,,,,,,,,,,,,,,,,,,,,,,,,,,567.4566168785095,None,568.4463129043579,None,2,1,0.6364140510559082,568.4463129043579,None,8010,001,08,2021_Nov_08_1330,task-switching-replication,2021.2.3,59.99696746895231,
2,39,experiment,08,standing,noswitch,incongruant,solid,square,yellow,stimuli/solid-rectangle.png,stimuli/yellow-square.png,1,,,,,,,,,,,,,,,,,,,,,,,,,0,0,0,0,1,0,1,0,0,38,38,38,,,,,,,,,,,,,,,,,,,,,,,,,,,,,,,,,,,,,,,,,,,,,,,,,,,,,,,,,,,,,,,1636400341.9553487,,,,,,,,,,571.187835931778,None,,,,,,,,,,,,,,,,,,,,,,,,,,,,,,,,,,,,,,,,,,569.4058220386505,None,570.3950848579407,None,1,1,0.6684298515319824,570.3950848579407,None,8010,001,08,2021_Nov_08_1330,task-switching-replication,2021.2.3,59.99696746895231,
2,40,experiment,08,standing,noswitch,incongruant,solid,triangle,blue,stimuli/solid-rectangle.png,stimuli/blue-triangle.png,2,,,,,,,,,,,,,,,,,,,,,,,,,0,0,0,0,1,0,1,0,0,39,39,39,,,,,,,,,,,,,,,,,,,,,,,,,,,,,,,,,,,,,,,,,,,,,,,,,,,,,,,,,,,,,,,1636400343.7265296,,,,,,,,,,572.9582500457764,None,,,,,,,,,,,,,,,,,,,,,,,,,,,,,,,,,,,,,,,,,,571.4172489643097,None,572.4064819812775,None,2,1,0.4126880168914795,572.4064819812775,None,8010,001,08,2021_Nov_08_1330,task-switching-replication,2021.2.3,59.99696746895231,
2,41,experiment,08,standing,noswitch,congruant,solid,triangle,yellow,stimuli/solid-rectangle.png,stimuli/yellow-triangle.png,2,,,,,,,,,,,,,,,,,,,,,,,,,0,0,0,0,1,0,1,0,0,40,40,40,,,,,,,,,,,,,,,,,,,,,,,,,,,,,,,,,,,,,,,,,,,,,,,,,,,,,,,,,,,,,,,1636400345.557253,,,,,,,,,,574.7897608280182,None,,,,,,,,,,,,,,,,,,,,,,,,,,,,,,,,,,,,,,,,,,573.188050031662,None,574.178386926651,None,2,1,0.5022180080413818,574.178386926651,None,8010,001,08,2021_Nov_08_1330,task-switching-replication,2021.2.3,59.99696746895231,
2,42,experiment,08,standing,noswitch,congruant,solid,triangle,yellow,stimuli/solid-rectangle.png,stimuli/yellow-triangle.png,2,,,,,,,,,,,,,,,,,,,,,,,,,0,0,0,0,1,0,1,0,0,41,41,41,,,,,,,,,,,,,,,,,,,,,,,,,,,,,,,,,,,,,,,,,,,,,,,,,,,,,,,,,,,,,,,1636400347.387633,,,,,,,,,,576.6201059818268,None,,,,,,,,,,,,,,,,,,,,,,,,,,,,,,,,,,,,,,,,,,575.0194809436798,None,576.0085599422455,None,2,1,0.4920330047607422,576.0085599422455,None,8010,001,08,2021_Nov_08_1330,task-switching-replication,2021.2.3,59.99696746895231,
2,43,experiment,08,standing,switch,incongruant,dashed,triangle,yellow,stimuli/dashed-rectangle.png,stimuli/yellow-triangle.png,1,,,,,,,,,,,,,,,,,,,,,,,,,0,0,0,0,1,0,1,0,0,42,42,42,,,,,0,0,0,0,,,,,,,,,,,,,,,,,,,,,,,,,,,,,,,,,,,,,,,,,,,,,,,,,,,,,,,1636400349.5131648,,,,,,,,,,,,,,,,578.7174237966537,579.736249923706,578.7507948875427,None,,,,,,,,,,,,,,,,,,,,,,,,,,,,,,,,,,576.8492460250854,None,577.8380489349365,None,2,0,0.7935841083526611,577.8380489349365,None,8010,001,08,2021_Nov_08_1330,task-switching-replication,2021.2.3,59.99696746895231,
2,43,experiment,08,standing,switch,incongruant,dashed,triangle,yellow,stimuli/dashed-rectangle.png,stimuli/yellow-triangle.png,1,,,,,,,,,,,,,,,,,,,,,,,,,0,0,0,0,1,0,1,0,0,42,42,42,,,,,,,,,,,,,,,,,,,,,,,,,,,,,,,,,,,,,,,,,,,,,,,,,,,,,,,,,,,,,,,,,,,,,,,,,583.7471120357513,None,,,,,,,,,,,,,,,,,,,,,,,,,,,,,,,,,,,,,,,,,,,,,,,,,,,8010,001,08,2021_Nov_08_1330,task-switching-replication,2021.2.3,59.99696746895231,
2,44,experiment,08,standing,noswitch,congruant,dashed,square,yellow,stimuli/dashed-rectangle.png,stimuli/yellow-square.png,1,,,,,,,,,,,,,,,,,,,,,,,,,0,0,0,0,1,0,1,0,0,43,43,43,,,,,,,,,,,,,,,,,,,,,,,,,,,,,,,,,,,,,,,,,,,,,,,,,,,,,,,,,,,,,,,1636400356.2887387,,,,,,,,,,585.5205059051514,None,,,,,,,,,,,,,,,,,,,,,,,,,,,,,,,,,,,,,,,,,,583.976399898529,None,584.965756893158,None,1,1,0.41587018966674805,584.965756893158,None,8010,001,08,2021_Nov_08_1330,task-switching-replication,2021.2.3,59.99696746895231,
2,45,experiment,08,standing,switch,incongruant,solid,triangle,blue,stimuli/solid-rectangle.png,stimuli/blue-triangle.png,2,,,,,,,,,,,,,,,,,,,,,,,,,0,0,0,0,1,0,1,0,0,44,44,44,,,,,,,,,,,,,,,,,,,,,,,,,,,,,,,,,,,,,,,,,,,,,,,,,,,,,,,,,,,,,,,1636400358.0596116,,,,,,,,,,587.2917828559875,None,,,,,,,,,,,,,,,,,,,,,,,,,,,,,,,,,,,,,,,,,,585.7503838539124,None,586.7398619651794,None,2,1,0.45067405700683594,586.7398619651794,None,8010,001,08,2021_Nov_08_1330,task-switching-replication,2021.2.3,59.99696746895231,
2,46,experiment,08,standing,noswitch,congruant,solid,triangle,yellow,stimuli/solid-rectangle.png,stimuli/yellow-triangle.png,2,,,,,,,,,,,,,,,,,,,,,,,,,0,0,0,0,1,0,1,0,0,45,45,45,0,0,0,0,,,,,,,,,,,,,,,,,,,,,,,,,,,,,,,,,,,,,,,,,,,,,,,,,,,,,,,,,,,1636400360.0715663,,,,,,,,,,,,589.2758909463882,590.3278789520264,589.3079228401184,None,,,,,,,,,,,,,,,,,,,,,,,,,,,,,,,,,,,,,,587.5203619003296,None,588.5104370117188,None,1,0,0.6639769077301025,588.5104370117188,None,8010,001,08,2021_Nov_08_1330,task-switching-replication,2021.2.3,59.99696746895231,
2,46,experiment,08,standing,noswitch,congruant,solid,triangle,yellow,stimuli/solid-rectangle.png,stimuli/yellow-triangle.png,2,,,,,,,,,,,,,,,,,,,,,,,,,0,0,0,0,1,0,1,0,0,45,45,45,,,,,,,,,,,,,,,,,,,,,,,,,,,,,,,,,,,,,,,,,,,,,,,,,,,,,,,,,,,,,,,,,,,,,,,,,594.3325259685516,None,,,,,,,,,,,,,,,,,,,,,,,,,,,,,,,,,,,,,,,,,,,,,,,,,,,8010,001,08,2021_Nov_08_1330,task-switching-replication,2021.2.3,59.99696746895231,
2,47,experiment,08,standing,switch,congruant,dashed,square,blue,stimuli/dashed-rectangle.png,stimuli/blue-square.png,2,,,,,,,,,,,,,,,,,,,,,,,,,0,0,0,0,1,0,1,0,0,46,46,46,,,,,0,0,0,0,,,,,,,,,,,,,,,,,,,,,,,,,,,,,,,,,,,,,,,,,,,,,,,,,,,,,,,1636400367.0160213,,,,,,,,,,,,,,,,596.2202678918839,597.2383608818054,596.2535719871521,None,,,,,,,,,,,,,,,,,,,,,,,,,,,,,,,,,,594.5294950008392,None,595.5183389186859,None,1,0,0.5820250511169434,595.5183389186859,None,8010,001,08,2021_Nov_08_1330,task-switching-replication,2021.2.3,59.99696746895231,
2,47,experiment,08,standing,switch,congruant,dashed,square,blue,stimuli/dashed-rectangle.png,stimuli/blue-square.png,2,,,,,,,,,,,,,,,,,,,,,,,,,0,0,0,0,1,0,1,0,0,46,46,46,,,,,,,,,,,,,,,,,,,,,,,,,,,,,,,,,,,,,,,,,,,,,,,,,,,,,,,,,,,,,,,,,,,,,,,,,601.2807838916779,None,,,,,,,,,,,,,,,,,,,,,,,,,,,,,,,,,,,,,,,,,,,,,,,,,,,8010,001,08,2021_Nov_08_1330,task-switching-replication,2021.2.3,59.99696746895231,
2,48,experiment,08,standing,noswitch,congruant,dashed,triangle,blue,stimuli/dashed-rectangle.png,stimuli/blue-triangle.png,2,,,,,,,,,,,,,,,,,,,,,,,,,0,0,0,0,1,0,1,0,0,47,47,47,,,,,,,,,,,,,,,,,,,,,,,,,,,,,,,,,,,,,,,,,,,,,,,,,,,,,,,,,,,,,,,1636400373.8471057,,,,,,,,,,603.0789158344269,None,,,,,,,,,,,,,,,,,,,,,,,,,,,,,,,,,,,,,,,,,,601.477865934372,None,602.4673080444336,None,2,1,0.487703800201416,602.4673080444336,None,8010,001,08,2021_Nov_08_1330,task-switching-replication,2021.2.3,59.99696746895231,
2,49,experiment,08,standing,switch,incongruant,solid,square,yellow,stimuli/solid-rectangle.png,stimuli/yellow-square.png,1,,,,,,,,,,,,,,,,,,,,,,,,,0,0,0,0,1,0,1,0,0,48,48,48,,,,,,,,,,,,,,,,,,,,,,,,,,,,,,,,,,,,,,,,,,,,,,,,,,,,,,,,,,,,,,,1636400375.796201,,,,,,,,,,605.0279769897461,None,,,,,,,,,,,,,,,,,,,,,,,,,,,,,,,,,,,,,,,,,,603.3084139823914,None,604.2970600128174,None,1,1,0.5871419906616211,604.2970600128174,None,8010,001,08,2021_Nov_08_1330,task-switching-replication,2021.2.3,59.99696746895231,
,,,08,,,,,,,,,,,,,,,,,,,,,,,,,,,,,,,,,,0,0,0,0,1,0,1,0,,,,,,,,,,,,,,,,,,,,,,,,,,,,,,,,,,,,,,,,,,,,,,,,,,,,,,,,,,,,,,,,,,,,,,,,,,,,,,,,,,,,,,,,,,,,,,,,,,,,,,,,,,,,,,,,,,,,,,,,,,,,,,,,,8010,001,08,2021_Nov_08_1330,task-switching-replication,2021.2.3,59.99696746895231,
3,1,experiment,08,standing,buffer,buffer,solid,triangle,yellow,stimuli/solid-rectangle.png,stimuli/yellow-triangle.png,2,,,,,,,,,,,,,,,,,,,,,,,,,0,0,0,0,2,0,2,0,0,0,0,0,0,0,0,0,,,,,,,,,,,,,,,,,,,,,,,,,,,,,,,,,,,,,,,,,,,,,,,,,,,,,,,,,,,1636400438.3004205,,,,,,,,,,,,667.5047179460526,668.5222058296204,667.5383050441742,None,,,,,,,,,,,,,,,,,,,,,,,,,,605.2581009864807,None,1,59.39294099807739,605.2581009864807,None,664.7817969322205,None,1,0.911236047744751,664.7817969322205,None,665.813668012619,None,666.8031368255615,None,1,0,0.5850319862365723,666.8031368255615,None,8010,001,08,2021_Nov_08_1330,task-switching-replication,2021.2.3,59.99696746895231,
3,1,experiment,08,standing,buffer,buffer,solid,triangle,yellow,stimuli/solid-rectangle.png,stimuli/yellow-triangle.png,2,,,,,,,,,,,,,,,,,,,,,,,,,0,0,0,0,2,0,2,0,0,0,0,0,,,,,,,,,,,,,,,,,,,,,,,,,,,,,,,,,,,,,,,,,,,,,,,,,,,,,,,,,,,,,,,,,,,,,,,,,672.5639519691467,None,,,,,,,,,,,,,,,,,,,,,,,,,,,,,,,,,,,,,,,,,,,,,,,,,,,8010,001,08,2021_Nov_08_1330,task-switching-replication,2021.2.3,59.99696746895231,
3,2,experiment,08,standing,noswitch,incongruant,solid,square,blue,stimuli/solid-rectangle.png,stimuli/blue-square.png,1,,,,,,,,,,,,,,,,,,,,,,,,,0,0,0,0,2,0,2,0,0,1,1,1,,,,,,,,,,,,,,,,,,,,,,,,,,,,,,,,,,,,,,,,,,,,,,,,,,,,,,,,,,,,,,,1636400445.188867,,,,,,,,,,674.4213950634003,None,,,,,,,,,,,,,,,,,,,,,,,,,,,,,,,,,,,,,,,,,,672.7611088752747,None,673.7505869865417,None,1,1,0.5604040622711182,673.7505869865417,None,8010,001,08,2021_Nov_08_1330,task-switching-replication,2021.2.3,59.99696746895231,
3,3,experiment,08,standing,noswitch,congruant,solid,square,blue,stimuli/solid-rectangle.png,stimuli/blue-square.png,1,,,,,,,,,,,,,,,,,,,,,,,,,0,0,0,0,2,0,2,0,0,2,2,2,,,,,,,,,,,,,,,,,,,,,,,,,,,,,,,,,,,,,,,,,,,,,,,,,,,,,,,,,,,,,,,1636400446.9019117,,,,,,,,,,676.1343998908997,None,,,,,,,,,,,,,,,,,,,,,,,,,,,,,,,,,,,,,,,,,,674.6529200077057,None,675.6417388916016,None,1,1,0.39524102210998535,675.6417388916016,None,8010,001,08,2021_Nov_08_1330,task-switching-replication,2021.2.3,59.99696746895231,
3,4,experiment,08,standing,switch,incongruant,dashed,square,blue,stimuli/dashed-rectangle.png,stimuli/blue-square.png,2,,,,,,,,,,,,,,,,,,,,,,,,,0,0,0,0,2,0,2,0,0,3,3,3,,,,,,,,,,,,,,,,,,,,,,,,,,,,,,,,,,,,,,,,,,,,,,,,,,,,,,,,,,,,,,,1636400448.7942147,,,,,,,,,,678.0261089801788,None,,,,,,,,,,,,,,,,,,,,,,,,,,,,,,,,,,,,,,,,,,676.3638868331909,None,677.3529598712921,None,2,1,0.5344111919403076,677.3529598712921,None,8010,001,08,2021_Nov_08_1330,task-switching-replication,2021.2.3,59.99696746895231,
3,5,experiment,08,standing,switch,congruant,solid,triangle,yellow,stimuli/solid-rectangle.png,stimuli/yellow-triangle.png,2,,,,,,,,,,,,,,,,,,,,,,,,,0,0,0,0,2,0,2,0,0,4,4,4,,,,,,,,,,,,,,,,,,,,,,,,,,,,,,,,,,,,,,,,,,,,,,,,,,,,,,,,,,,,,,,1636400450.9223623,,,,,,,,,,680.1548919677734,None,,,,,,,,,,,,,,,,,,,,,,,,,,,,,,,,,,,,,,,,,,678.2560348510742,None,679.2465529441833,None,2,1,0.7605099678039551,679.2465529441833,None,8010,001,08,2021_Nov_08_1330,task-switching-replication,2021.2.3,59.99696746895231,
3,6,experiment,08,standing,switch,congruant,dashed,triangle,blue,stimuli/dashed-rectangle.png,stimuli/blue-triangle.png,2,,,,,,,,,,,,,,,,,,,,,,,,,0,0,0,0,2,0,2,0,0,5,5,5,,,,,,,,,,,,,,,,,,,,,,,,,,,,,,,,,,,,,,,,,,,,,,,,,,,,,,,,,,,,,,,1636400453.1108963,,,,,,,,,,682.3435668945312,None,,,,,,,,,,,,,,,,,,,,,,,,,,,,,,,,,,,,,,,,,,680.3844628334045,None,681.376030921936,None,2,1,0.8520989418029785,681.376030921936,None,8010,001,08,2021_Nov_08_1330,task-switching-replication,2021.2.3,59.99696746895231,
3,7,experiment,08,standing,switch,incongruant,solid,square,blue,stimuli/solid-rectangle.png,stimuli/blue-square.png,1,,,,,,,,,,,,,,,,,,,,,,,,,0,0,0,0,2,0,2,0,0,6,6,6,,,,,,,,,,,,,,,,,,,,,,,,,,,,,,,,,,,,,,,,,,,,,,,,,,,,,,,,,,,,,,,1636400455.0644603,,,,,,,,,,684.2961518764496,None,,,,,,,,,,,,,,,,,,,,,,,,,,,,,,,,,,,,,,,,,,682.5730140209198,None,683.5634729862213,None,1,1,0.6043701171875,683.5634729862213,None,8010,001,08,2021_Nov_08_1330,task-switching-replication,2021.2.3,59.99696746895231,
3,8,experiment,08,standing,noswitch,incongruant,solid,triangle,blue,stimuli/solid-rectangle.png,stimuli/blue-triangle.png,2,,,,,,,,,,,,,,,,,,,,,,,,,0,0,0,0,2,0,2,0,0,7,7,7,,,,,,,,,,,,,,,,,,,,,,,,,,,,,,,,,,,,,,,,,,,,,,,,,,,,,,,,,,,,,,,1636400456.7796588,,,,,,,,,,686.0113499164581,None,,,,,,,,,,,,,,,,,,,,,,,,,,,,,,,,,,,,,,,,,,684.5255980491638,None,685.5154678821564,None,2,1,0.37185001373291016,685.5154678821564,None,8010,001,08,2021_Nov_08_1330,task-switching-replication,2021.2.3,59.99696746895231,
3,9,experiment,08,standing,noswitch,congruant,solid,triangle,yellow,stimuli/solid-rectangle.png,stimuli/yellow-triangle.png,2,,,,,,,,,,,,,,,,,,,,,,,,,0,0,0,0,2,0,2,0,0,8,8,8,,,,,,,,,,,,,,,,,,,,,,,,,,,,,,,,,,,,,,,,,,,,,,,,,,,,,,,,,,,,,,,1636400458.668839,,,,,,,,,,687.9014580249786,None,,,,,,,,,,,,,,,,,,,,,,,,,,,,,,,,,,,,,,,,,,686.2405588626862,None,687.2306659221649,None,2,1,0.5724589824676514,687.2306659221649,None,8010,001,08,2021_Nov_08_1330,task-switching-replication,2021.2.3,59.99696746895231,
3,10,experiment,08,standing,noswitch,incongruant,solid,square,blue,stimuli/solid-rectangle.png,stimuli/blue-square.png,1,,,,,,,,,,,,,,,,,,,,,,,,,0,0,0,0,2,0,2,0,0,9,9,9,,,,,,,,,,,,,,,,,,,,,,,,,,,,,,,,,,,,,,,,,,,,,,,,,,,,,,,,,,,,,,,1636400460.561757,,,,,,,,,,689.7937278747559,None,,,,,,,,,,,,,,,,,,,,,,,,,,,,,,,,,,,,,,,,,,688.1309309005737,None,689.1204879283905,None,1,1,0.534614086151123,689.1204879283905,None,8010,001,08,2021_Nov_08_1330,task-switching-replication,2021.2.3,59.99696746895231,
3,11,experiment,08,standing,switch,congruant,dashed,triangle,yellow,stimuli/dashed-rectangle.png,stimuli/yellow-triangle.png,1,,,,,,,,,,,,,,,,,,,,,,,,,0,0,0,0,2,0,2,0,0,10,10,10,,,,,,,,,,,,,,,,,,,,,,,,,,,,,,,,,,,,,,,,,,,,,,,,,,,,,,,,,,,,,,,1636400462.6300628,,,,,,,,,,691.8625738620758,None,,,,,,,,,,,,,,,,,,,,,,,,,,,,,,,,,,,,,,,,,,690.023108959198,None,691.0134029388428,None,1,1,0.7255780696868896,691.0134029388428,None,8010,001,08,2021_Nov_08_1330,task-switching-replication,2021.2.3,59.99696746895231,
3,12,experiment,08,standing,switch,congruant,solid,square,yellow,stimuli/solid-rectangle.png,stimuli/yellow-square.png,1,,,,,,,,,,,,,,,,,,,,,,,,,0,0,0,0,2,0,2,0,0,11,11,11,,,,,,,,,,,,,,,,,,,,,,,,,,,,,,,,,,,,,,,,,,,,,,,,,,,,,,,,,,,,,,,1636400465.1113772,,,,,,,,,,694.3437750339508,None,,,,,,,,,,,,,,,,,,,,,,,,,,,,,,,,,,,,,,,,,,692.0917780399323,None,693.0810759067535,None,1,1,1.127798080444336,693.0810759067535,None,8010,001,08,2021_Nov_08_1330,task-switching-replication,2021.2.3,59.99696746895231,
3,13,experiment,08,standing,noswitch,incongruant,solid,triangle,blue,stimuli/solid-rectangle.png,stimuli/blue-triangle.png,2,,,,,,,,,,,,,,,,,,,,,,,,,0,0,0,0,2,0,2,0,0,12,12,12,,,,,,,,,,,,,,,,,,,,,,,,,,,,,,,,,,,,,,,,,,,,,,,,,,,,,,,,,,,,,,,1636400466.8823595,,,,,,,,,,696.1148319244385,None,,,,,,,,,,,,,,,,,,,,,,,,,,,,,,,,,,,,,,,,,,694.5730350017548,None,695.5625698566437,None,2,1,0.4436068534851074,695.5625698566437,None,8010,001,08,2021_Nov_08_1330,task-switching-replication,2021.2.3,59.99696746895231,
3,14,experiment,08,standing,noswitch,congruant,solid,triangle,blue,stimuli/solid-rectangle.png,stimuli/blue-triangle.png,2,,,,,,,,,,,,,,,,,,,,,,,,,0,0,0,0,2,0,2,0,0,13,13,13,,,,,,,,,,,,,,,,,,,,,,,,,,,,,,,,,,,,,,,,,,,,,,,,,,,,,,,,,,,,,,,1636400468.6536279,,,,,,,,,,697.8862099647522,None,,,,,,,,,,,,,,,,,,,,,,,,,,,,,,,,,,,,,,,,,,696.3443379402161,None,697.3339400291443,None,2,1,0.4601418972015381,697.3339400291443,None,8010,001,08,2021_Nov_08_1330,task-switching-replication,2021.2.3,59.99696746895231,
3,15,experiment,08,standing,noswitch,congruant,solid,triangle,blue,stimuli/solid-rectangle.png,stimuli/blue-triangle.png,2,,,,,,,,,,,,,,,,,,,,,,,,,0,0,0,0,2,0,2,0,0,14,14,14,,,,,,,,,,,,,,,,,,,,,,,,,,,,,,,,,,,,,,,,,,,,,,,,,,,,,,,,,,,,,,,1636400470.7230098,,,,,,,,,,699.9554288387299,None,,,,,,,,,,,,,,,,,,,,,,,,,,,,,,,,,,,,,,,,,,698.1155450344086,None,699.1061749458313,None,2,1,0.707787036895752,699.1061749458313,None,8010,001,08,2021_Nov_08_1330,task-switching-replication,2021.2.3,59.99696746895231,
3,16,experiment,08,standing,noswitch,incongruant,solid,square,yellow,stimuli/solid-rectangle.png,stimuli/yellow-square.png,1,,,,,,,,,,,,,,,,,,,,,,,,,0,0,0,0,2,0,2,0,0,15,15,15,,,,,,,,,,,,,,,,,,,,,,,,,,,,,,,,,,,,,,,,,,,,,,,,,,,,,,,,,,,,,,,1636400472.4963448,,,,,,,,,,701.7281370162964,None,,,,,,,,,,,,,,,,,,,,,,,,,,,,,,,,,,,,,,,,,,700.1849830150604,None,701.1753890514374,None,1,1,0.40392303466796875,701.1753890514374,None,8010,001,08,2021_Nov_08_1330,task-switching-replication,2021.2.3,59.99696746895231,
3,17,experiment,08,standing,noswitch,congruant,solid,square,yellow,stimuli/solid-rectangle.png,stimuli/yellow-square.png,1,,,,,,,,,,,,,,,,,,,,,,,,,0,0,0,0,2,0,2,0,0,16,16,16,,,,,,,,,,,,,,,,,,,,,,,,,,,,,,,,,,,,,,,,,,,,,,,,,,,,,,,,,,,,,,,1636400474.3260288,,,,,,,,,,703.5584659576416,None,,,,,,,,,,,,,,,,,,,,,,,,,,,,,,,,,,,,,,,,,,701.9576900005341,None,702.947144985199,None,1,1,0.47979092597961426,702.947144985199,None,8010,001,08,2021_Nov_08_1330,task-switching-replication,2021.2.3,59.99696746895231,
3,18,experiment,08,standing,switch,incongruant,dashed,triangle,blue,stimuli/dashed-rectangle.png,stimuli/blue-triangle.png,2,,,,,,,,,,,,,,,,,,,,,,,,,0,0,0,0,2,0,2,0,0,17,17,17,,,,,,,,,,,,,,,,,,,,,,,,,,,,,,,,,,,,,,,,,,,,,,,,,,,,,,,,,,,,,,,1636400476.0961332,,,,,,,,,,705.3278579711914,None,,,,,,,,,,,,,,,,,,,,,,,,,,,,,,,,,,,,,,,,,,703.7876698970795,None,704.7761640548706,None,2,1,0.4230949878692627,704.7761640548706,None,8010,001,08,2021_Nov_08_1330,task-switching-replication,2021.2.3,59.99696746895231,
3,19,experiment,08,standing,switch,incongruant,solid,square,yellow,stimuli/solid-rectangle.png,stimuli/yellow-square.png,1,,,,,,,,,,,,,,,,,,,,,,,,,0,0,0,0,2,0,2,0,0,18,18,18,,,,,,,,,,,,,,,,,,,,,,,,,,,,,,,,,,,,,,,,,,,,,,,,,,,,,,,,,,,,,,,1636400477.9263396,,,,,,,,,,707.1588869094849,None,,,,,,,,,,,,,,,,,,,,,,,,,,,,,,,,,,,,,,,,,,705.5570909976959,None,706.5472710132599,None,1,1,0.4974939823150635,706.5472710132599,None,8010,001,08,2021_Nov_08_1330,task-switching-replication,2021.2.3,59.99696746895231,
3,20,experiment,08,standing,switch,congruant,dashed,triangle,yellow,stimuli/dashed-rectangle.png,stimuli/yellow-triangle.png,1,,,,,,,,,,,,,,,,,,,,,,,,,0,0,0,0,2,0,2,0,0,19,19,19,,,,,0,0,0,0,,,,,,,,,,,,,,,,,,,,,,,,,,,,,,,,,,,,,,,,,,,,,,,,,,,,,,,1636400479.993968,,,,,,,,,,,,,,,,709.1982949972153,710.2162618637085,709.2309880256653,None,,,,,,,,,,,,,,,,,,,,,,,,,,,,,,,,,,707.3882410526276,None,708.3783040046692,None,2,0,0.7370128631591797,708.3783040046692,None,8010,001,08,2021_Nov_08_1330,task-switching-replication,2021.2.3,59.99696746895231,
3,20,experiment,08,standing,switch,congruant,dashed,triangle,yellow,stimuli/dashed-rectangle.png,stimuli/yellow-triangle.png,1,,,,,,,,,,,,,,,,,,,,,,,,,0,0,0,0,2,0,2,0,0,19,19,19,,,,,,,,,,,,,,,,,,,,,,,,,,,,,,,,,,,,,,,,,,,,,,,,,,,,,,,,,,,,,,,,,,,,,,,,,714.2600939273834,None,,,,,,,,,,,,,,,,,,,,,,,,,,,,,,,,,,,,,,,,,,,,,,,,,,,8010,001,08,2021_Nov_08_1330,task-switching-replication,2021.2.3,59.99696746895231,
3,21,experiment,08,standing,noswitch,congruant,dashed,square,yellow,stimuli/dashed-rectangle.png,stimuli/yellow-square.png,1,,,,,,,,,,,,,,,,,,,,,,,,,0,0,0,0,2,0,2,0,0,20,20,20,,,,,,,,,,,,,,,,,,,,,,,,,,,,,,,,,,,,,,,,,,,,,,,,,,,,,,,,,,,,,,,1636400487.0632646,,,,,,,,,,716.2951378822327,None,,,,,,,,,,,,,,,,,,,,,,,,,,,,,,,,,,,,,,,,,,714.4571268558502,None,715.4465579986572,None,1,1,0.7000300884246826,715.4465579986572,None,8010,001,08,2021_Nov_08_1330,task-switching-replication,2021.2.3,59.99696746895231,
3,22,experiment,08,standing,noswitch,congruant,dashed,triangle,yellow,stimuli/dashed-rectangle.png,stimuli/yellow-triangle.png,1,,,,,,,,,,,,,,,,,,,,,,,,,0,0,0,0,2,0,2,0,0,21,21,21,,,,,,,,,,,,,,,,,,,,,,,,,,,,,,,,,,,,,,,,,,,,,,,,,,,,,,,,,,,,,,,1636400488.8340895,,,,,,,,,,718.0665149688721,None,,,,,,,,,,,,,,,,,,,,,,,,,,,,,,,,,,,,,,,,,,716.5245978832245,None,717.5141220092773,None,1,1,0.4256620407104492,717.5141220092773,None,8010,001,08,2021_Nov_08_1330,task-switching-replication,2021.2.3,59.99696746895231,
3,23,experiment,08,standing,switch,incongruant,solid,triangle,yellow,stimuli/solid-rectangle.png,stimuli/yellow-triangle.png,2,,,,,,,,,,,,,,,,,,,,,,,,,0,0,0,0,2,0,2,0,0,22,22,22,,,,,,,,,,,,,,,,,,,,,,,,,,,,,,,,,,,,,,,,,,,,,,,,,,,,,,,,,,,,,,,1636400490.666202,,,,,,,,,,719.8982410430908,None,,,,,,,,,,,,,,,,,,,,,,,,,,,,,,,,,,,,,,,,,,718.2957890033722,None,719.285630941391,None,2,1,0.4740331172943115,719.285630941391,None,8010,001,08,2021_Nov_08_1330,task-switching-replication,2021.2.3,59.99696746895231,
3,24,experiment,08,standing,switch,congruant,dashed,triangle,blue,stimuli/dashed-rectangle.png,stimuli/blue-triangle.png,2,,,,,,,,,,,,,,,,,,,,,,,,,0,0,0,0,2,0,2,0,0,23,23,23,,,,,,,,,,,,,,,,,,,,,,,,,,,,,,,,,,,,,,,,,,,,,,,,,,,,,,,,,,,,,,,1636400492.6155798,,,,,,,,,,721.8483538627625,None,,,,,,,,,,,,,,,,,,,,,,,,,,,,,,,,,,,,,,,,,,720.1279919147491,None,721.1177890300751,None,2,1,0.6240289211273193,721.1177890300751,None,8010,001,08,2021_Nov_08_1330,task-switching-replication,2021.2.3,59.99696746895231,
3,25,experiment,08,standing,switch,incongruant,solid,square,yellow,stimuli/solid-rectangle.png,stimuli/yellow-square.png,1,,,,,,,,,,,,,,,,,,,,,,,,,0,0,0,0,2,0,2,0,0,24,24,24,,,,,,,,,,,,,,,,,,,,,,,,,,,,,,,,,,,,,,,,,,,,,,,,,,,,,,,,,,,,,,,1636400494.8020558,,,,,,,,,,724.0339469909668,None,,,,,,,,,,,,,,,,,,,,,,,,,,,,,,,,,,,,,,,,,,722.0785338878632,None,723.067391872406,None,1,1,0.8673319816589355,723.067391872406,None,8010,001,08,2021_Nov_08_1330,task-switching-replication,2021.2.3,59.99696746895231,
3,26,experiment,08,standing,switch,incongruant,dashed,square,blue,stimuli/dashed-rectangle.png,stimuli/blue-square.png,2,,,,,,,,,,,,,,,,,,,,,,,,,0,0,0,0,2,0,2,0,0,25,25,25,,,,,,,,,,,,,,,,,,,,,,,,,,,,,,,,,,,,,,,,,,,,,,,,,,,,,,,,,,,,,,,1636400497.1066616,,,,,,,,,,726.3392648696899,None,,,,,,,,,,,,,,,,,,,,,,,,,,,,,,,,,,,,,,,,,,724.2632739543915,None,725.2530748844147,None,2,1,0.9716441631317139,725.2530748844147,None,8010,001,08,2021_Nov_08_1330,task-switching-replication,2021.2.3,59.99696746895231,
