blockNum,trialNum,trialType,condition,posture,switchTrialType,congruantTrialType,cueType,shapeType,shapeColor,cueFileName,stimuliFileName,correctAnswer,untimedTrials.thisRepN,untimedTrials.thisTrialN,untimedTrials.thisN,untimedTrials.thisIndex,selectSolid1.thisRepN,selectSolid1.thisTrialN,selectSolid1.thisN,selectSolid1.thisIndex,selectDashed1.thisRepN,selectDashed1.thisTrialN,selectDashed1.thisN,selectDashed1.thisIndex,timedTrials.thisRepN,timedTrials.thisTrialN,timedTrials.thisN,timedTrials.thisIndex,selectSolid2.thisRepN,selectSolid2.thisTrialN,selectSolid2.thisN,selectSolid2.thisIndex,selectDashed2.thisRepN,selectDashed2.thisTrialN,selectDashed2.thisN,selectDashed2.thisIndex,postures.thisRepN,postures.thisTrialN,postures.thisN,postures.thisIndex,blocks.thisRepN,blocks.thisTrialN,blocks.thisN,blocks.thisIndex,trials.thisRepN,trials.thisTrialN,trials.thisN,trials.thisIndex,selectSolid.thisRepN,selectSolid.thisTrialN,selectSolid.thisN,selectSolid.thisIndex,selectDashed.thisRepN,selectDashed.thisTrialN,selectDashed.thisN,selectDashed.thisIndex,text_3.started,text_3.stopped,key_resp_2.keys,key_resp_2.rt,key_resp_2.started,key_resp_2.stopped,image_4.started,image_4.stopped,key_resp_4.keys,key_resp_4.rt,key_resp_4.started,key_resp_4.stopped,image_5.started,image_5.stopped,key_resp_5.keys,key_resp_5.rt,key_resp_5.started,key_resp_5.stopped,image_6.started,image_6.stopped,key_resp_6.keys,key_resp_6.rt,key_resp_6.started,key_resp_6.stopped,image_7.started,image_7.stopped,key_resp_7.keys,key_resp_7.rt,key_resp_7.started,key_resp_7.stopped,image_8.started,image_8.stopped,key_resp_8.keys,key_resp_8.rt,key_resp_8.started,key_resp_8.stopped,image_9.started,image_9.stopped,key_resp_9.keys,key_resp_9.rt,key_resp_9.started,key_resp_9.stopped,image_10.started,image_10.stopped,key_resp_10.keys,key_resp_10.rt,key_resp_10.started,key_resp_10.stopped,image_11.started,image_11.stopped,key_resp_11.keys,key_resp_11.rt,key_resp_11.started,key_resp_11.stopped,utcTime,cue_untimed_image.started,cue_untimed_image.stopped,stimuli_untimed_image.started,stimuli_untimed_image.stopped,untimed_resp.keys,untimed_resp.corr,untimed_resp.rt,untimed_resp.started,untimed_resp.stopped,text_2.started,text_2.stopped,sound_2.started,sound_2.stopped,image_3.started,image_3.stopped,sound_1.started,sound_1.stopped,image_2.started,image_2.stopped,image_12.started,image_12.stopped,key_resp_12.keys,key_resp_12.rt,key_resp_12.started,key_resp_12.stopped,image_13.started,image_13.stopped,key_resp_13.keys,key_resp_13.rt,key_resp_13.started,key_resp_13.stopped,cue_timed_image.started,cue_timed_image.stopped,stimuli_timed_image.started,stimuli_timed_image.stopped,timed_resp.keys,timed_resp.corr,timed_resp.rt,timed_resp.started,timed_resp.stopped,image.started,image.stopped,key_response.keys,key_response.rt,key_response.started,key_response.stopped,text.started,text.stopped,key_resp.keys,key_resp.rt,key_resp.started,key_resp.stopped,cue_image.started,cue_image.stopped,stimuli_image.started,stimuli_image.stopped,exp_resp.keys,exp_resp.corr,exp_resp.started,exp_resp.stopped,exp_resp.rt,text_4.started,text_4.stopped,key_resp_3.keys,key_resp_3.rt,key_resp_3.started,key_resp_3.stopped,participant,session,condition,date,expName,psychopyVersion,frameRate,
,,,15,,,,,,,,,,,,,,,,,,,,,,,,,,,,,,,,,,,,,,,,,,,,,,,,,,,,,,147.24552702903748,None,2,1.5020568370819092,147.24552702903748,None,,,,,,,,,,,,,,,,,,,,,,,,,,,,,,,,,,,,,,,,,,,,,,,,,,,,,,,,,,,,,,,,,,,,,,,,,,,,,,,,,,,,,,,,,,,,,,,,,,,,,,,,,,,,,,,,,,,,,8011,001,15,2021_Nov_08_1402,task-switching-replication,2021.2.3,59.99413547622079,
,,,15,,,,,,,,,,,,,,,,,,,,,,,,,,,,,,,,,,,,,,,,,,,,,,,,,,,,,,,,,,,,148.78856897354126,None,2,15.183064937591553,148.78856897354126,None,,,,,,,,,,,,,,,,,,,,,,,,,,,,,,,,,,,,,,,,,,,,,,,,,,,,,,,,,,,,,,,,,,,,,,,,,,,,,,,,,,,,,,,,,,,,,,,,,,,,,,,,,,,,,,,8011,001,15,2021_Nov_08_1402,task-switching-replication,2021.2.3,59.99413547622079,
,,,15,,,,,,,,,,,,,,,,,,,,,,,,,,,,,,,,,,,,,,,,,,,,,,,,,,,,,,,,,,,,,,,,,,164.02425909042358,None,1,15.897688865661621,164.02425909042358,None,,,,,,,,,,,,,,,,,,,,,,,,,,,,,,,,,,,,,,,,,,,,,,,,,,,,,,,,,,,,,,,,,,,,,,,,,,,,,,,,,,,,,,,,,,,,,,,,,,,,,,,,,8011,001,15,2021_Nov_08_1402,task-switching-replication,2021.2.3,59.99413547622079,
,,,15,,,,,,,,,,,,,,,,,,,,,,,,,,,,,,,,,,,,,,,,,,,,,,,,,,,,,,,,,,,,,,,,,,,,,,,,179.9664649963379,None,2,6.632642984390259,179.9664649963379,None,,,,,,,,,,,,,,,,,,,,,,,,,,,,,,,,,,,,,,,,,,,,,,,,,,,,,,,,,,,,,,,,,,,,,,,,,,,,,,,,,,,,,,,,,,,,,,,,,,,8011,001,15,2021_Nov_08_1402,task-switching-replication,2021.2.3,59.99413547622079,
,,,15,,,,,,,,,,,,,,,,,,,,,,,,,,,,,,,,,,,,,,,,,,,,,,,,,,,,,,,,,,,,,,,,,,,,,,,,,,,,,,186.67266511917114,None,2,1.5757849216461182,186.67266511917114,None,,,,,,,,,,,,,,,,,,,,,,,,,,,,,,,,,,,,,,,,,,,,,,,,,,,,,,,,,,,,,,,,,,,,,,,,,,,,,,,,,,,,,,,,,,,,,8011,001,15,2021_Nov_08_1402,task-switching-replication,2021.2.3,59.99413547622079,
,,,15,,,,,,,,,,,,,,,,,,,,,,,,,,,,,,,,,,,,,,,,,,,,,,,,,,,,,,,,,,,,,,,,,,,,,,,,,,,,,,,,,,,,188.33605408668518,None,1,7.320224046707153,188.33605408668518,None,,,,,,,,,,,,,,,,,,,,,,,,,,,,,,,,,,,,,,,,,,,,,,,,,,,,,,,,,,,,,,,,,,,,,,,,,,,,,,,,,,,,,,,8011,001,15,2021_Nov_08_1402,task-switching-replication,2021.2.3,59.99413547622079,
,,,15,,,,,,,,,,,,,,,,,,,,,,,,,,,,,,,,,,,,,,,,,,,,,,,,,,,,,,,,,,,,,,,,,,,,,,,,,,,,,,,,,,,,,,,,,,195.76080298423767,None,2,6.163683176040649,195.76080298423767,None,,,,,,,,,,,,,,,,,,,,,,,,,,,,,,,,,,,,,,,,,,,,,,,,,,,,,,,,,,,,,,,,,,,,,,,,,,,,,,,,,8011,001,15,2021_Nov_08_1402,task-switching-replication,2021.2.3,59.99413547622079,
,,,15,,,,,,,,,,,,,,,,,,,,,,,,,,,,,,,,,,,,,,,,,,,,,,,,,,,,,,,,,,,,,,,,,,,,,,,,,,,,,,,,,,,,,,,,,,,,,,,,202.0240249633789,None,2,4.64246392250061,202.0240249633789,None,,,,,,,,,,,,,,,,,,,,,,,,,,,,,,,,,,,,,,,,,,,,,,,,,,,,,,,,,,,,,,,,,,,,,,,,,,,8011,001,15,2021_Nov_08_1402,task-switching-replication,2021.2.3,59.99413547622079,
,,,15,,,,,,,,,,,,,,,,,,,,,,,,,,,,,,,,,,,,,,,,,,,,,,,,,,,,,,,,,,,,,,,,,,,,,,,,,,,,,,,,,,,,,,,,,,,,,,,,,,,,,,206.77901196479797,None,2,22.817281007766724,206.77901196479797,None,,,,,,,,,,,,,,,,,,,,,,,,,,,,,,,,,,,,,,,,,,,,,,,,,,,,,,,,,,,,,,,,,,,,,8011,001,15,2021_Nov_08_1402,task-switching-replication,2021.2.3,59.99413547622079,
1,1,untimed,15,sitting,buffer,buffer,dashed,square,blue,stimuli/dashed-rectangle.png,stimuli/blue-square.png,2,0,0,0,0,,,,,,,,,,,,,,,,,,,,,,,,,,,,,,,,,,,,,,,,,,,,,,,,,,,,,,,,,,,,,,,,,,,,,,,,,,,,,,,,,,,,,,,,,,,,,,,1636401830.9412386,229.7307801246643,None,230.735985994339,None,2,1,0.5588059425354004,230.735985994339,None,231.4140191078186,None,,,,,,,,,,,,,,,,,,,,,,,,,,,,,,,,,,,,,,,,,,,,,,,,,,,,,,,,,8011,001,15,2021_Nov_08_1402,task-switching-replication,2021.2.3,59.99413547622079,
1,2,untimed,15,sitting,noswitch,congruant,dashed,triangle,blue,stimuli/dashed-rectangle.png,stimuli/blue-triangle.png,2,0,1,1,1,,,,,0,0,0,0,,,,,,,,,,,,,,,,,,,,,,,,,,,,,,,,,,,,,,,,,,,,,,,,,,,,,,,,,,,,,,,,,,,,,,,,,,,,,,,,,,,,,,,1636401835.9455793,231.64416694641113,None,232.61804103851318,None,1,0,3.654387950897217,232.61804103851318,None,,,236.38923358917236,237.4082899093628,236.42167711257935,None,,,,,,,,,,,,,,,,,,,,,,,,,,,,,,,,,,,,,,,,,,,,,,,,,,,,,8011,001,15,2021_Nov_08_1402,task-switching-replication,2021.2.3,59.99413547622079,
1,2,untimed,15,sitting,noswitch,congruant,dashed,triangle,blue,stimuli/dashed-rectangle.png,stimuli/blue-triangle.png,2,0,1,1,1,,,,,,,,,,,,,,,,,,,,,,,,,,,,,,,,,,,,,,,,,,,,,,,,,,,,,,,,,,,,,,,,,,,,,,,,,,,,,,,,,,,,,,,,,,,,,,,,,,,,,,,,,241.4509150981903,None,,,,,,,,,,,,,,,,,,,,,,,,,,,,,,,,,,,,,,,,,,,,,,,,,,,,,,,,,8011,001,15,2021_Nov_08_1402,task-switching-replication,2021.2.3,59.99413547622079,
1,3,untimed,15,sitting,noswitch,incongruant,dashed,square,yellow,stimuli/dashed-rectangle.png,stimuli/yellow-square.png,1,0,2,2,2,,,,,,,,,,,,,,,,,,,,,,,,,,,,,,,,,,,,,,,,,,,,,,,,,,,,,,,,,,,,,,,,,,,,,,,,,,,,,,,,,,,,,,,,,,,,,,,1636401843.548019,241.648766040802,None,242.621994972229,None,1,1,1.2622911930084229,242.621994972229,None,244.01932907104492,None,,,,,,,,,,,,,,,,,,,,,,,,,,,,,,,,,,,,,,,,,,,,,,,,,,,,,,,,,8011,001,15,2021_Nov_08_1402,task-switching-replication,2021.2.3,59.99413547622079,
1,4,untimed,15,sitting,noswitch,congruant,dashed,triangle,yellow,stimuli/dashed-rectangle.png,stimuli/yellow-triangle.png,1,0,3,3,3,,,,,0,0,0,0,,,,,,,,,,,,,,,,,,,,,,,,,,,,,,,,,,,,,,,,,,,,,,,,,,,,,,,,,,,,,,,,,,,,,,,,,,,,,,,,,,,,,,,1636401845.308276,244.2494330406189,None,245.22252011299133,None,2,0,0.4513218402862549,245.22252011299133,None,,,245.75190258026123,246.77111196517944,245.78549909591675,None,,,,,,,,,,,,,,,,,,,,,,,,,,,,,,,,,,,,,,,,,,,,,,,,,,,,,8011,001,15,2021_Nov_08_1402,task-switching-replication,2021.2.3,59.99413547622079,
1,4,untimed,15,sitting,noswitch,congruant,dashed,triangle,yellow,stimuli/dashed-rectangle.png,stimuli/yellow-triangle.png,1,0,3,3,3,,,,,,,,,,,,,,,,,,,,,,,,,,,,,,,,,,,,,,,,,,,,,,,,,,,,,,,,,,,,,,,,,,,,,,,,,,,,,,,,,,,,,,,,,,,,,,,,,,,,,,,,,250.81363201141357,None,,,,,,,,,,,,,,,,,,,,,,,,,,,,,,,,,,,,,,,,,,,,,,,,,,,,,,,,,8011,001,15,2021_Nov_08_1402,task-switching-replication,2021.2.3,59.99413547622079,
1,5,untimed,15,sitting,switch,incongruant,solid,square,yellow,stimuli/solid-rectangle.png,stimuli/yellow-square.png,2,0,4,4,4,0,0,0,0,,,,,,,,,,,,,,,,,,,,,,,,,,,,,,,,,,,,,,,,,,,,,,,,,,,,,,,,,,,,,,,,,,,,,,,,,,,,,,,,,,,,,,,,,,,1636401852.8507447,251.01131892204285,None,251.98307490348816,None,1,0,1.1843619346618652,251.98307490348816,None,,,,,,,253.29440450668335,254.31252193450928,253.32658290863037,None,,,,,,,,,,,,,,,,,,,,,,,,,,,,,,,,,,,,,,,,,,,,,,,,,8011,001,15,2021_Nov_08_1402,task-switching-replication,2021.2.3,59.99413547622079,
1,5,untimed,15,sitting,switch,incongruant,solid,square,yellow,stimuli/solid-rectangle.png,stimuli/yellow-square.png,2,0,4,4,4,,,,,,,,,,,,,,,,,,,,,,,,,,,,,,,,,,,,,,,,,,,,,,,,,,,,,,,,,,,,,,,,,,,,,,,,,,,,,,,,,,,,,,,,,,,,,,,,,,,,,,,,,258.3272740840912,None,,,,,,,,,,,,,,,,,,,,,,,,,,,,,,,,,,,,,,,,,,,,,,,,,,,,,,,,,8011,001,15,2021_Nov_08_1402,task-switching-replication,2021.2.3,59.99413547622079,
1,6,untimed,15,sitting,switch,incongruant,dashed,triangle,yellow,stimuli/dashed-rectangle.png,stimuli/yellow-triangle.png,1,0,5,5,5,,,,,,,,,,,,,,,,,,,,,,,,,,,,,,,,,,,,,,,,,,,,,,,,,,,,,,,,,,,,,,,,,,,,,,,,,,,,,,,,,,,,,,,,,,,,,,,1636401859.7651238,258.52480602264404,None,259.49831199645996,None,1,1,0.5836820602416992,259.49831199645996,None,260.23623490333557,None,,,,,,,,,,,,,,,,,,,,,,,,,,,,,,,,,,,,,,,,,,,,,,,,,,,,,,,,,8011,001,15,2021_Nov_08_1402,task-switching-replication,2021.2.3,59.99413547622079,
1,7,untimed,15,sitting,switch,incongruant,solid,square,blue,stimuli/solid-rectangle.png,stimuli/blue-square.png,2,0,6,6,6,,,,,,,,,,,,,,,,,,,,,,,,,,,,,,,,,,,,,,,,,,,,,,,,,,,,,,,,,,,,,,,,,,,,,,,,,,,,,,,,,,,,,,,,,,,,,,,1636401861.7064893,260.466588973999,None,261.4399139881134,None,2,1,0.6344540119171143,261.4399139881134,None,262.1778130531311,None,,,,,,,,,,,,,,,,,,,,,,,,,,,,,,,,,,,,,,,,,,,,,,,,,,,,,,,,,8011,001,15,2021_Nov_08_1402,task-switching-replication,2021.2.3,59.99413547622079,
1,8,untimed,15,sitting,switch,congruant,dashed,triangle,blue,stimuli/dashed-rectangle.png,stimuli/blue-triangle.png,2,0,7,7,7,,,,,,,,,,,,,,,,,,,,,,,,,,,,,,,,,,,,,,,,,,,,,,,,,,,,,,,,,,,,,,,,,,,,,,,,,,,,,,,,,,,,,,,,,,,,,,,1636401864.1277742,262.4079439640045,None,263.3818039894104,None,2,1,1.0982770919799805,263.3818039894104,None,264.5996730327606,None,,,,,,,,,,,,,,,,,,,,,,,,,,,,,,,,,,,,,,,,,,,,,,,,,,,,,,,,,8011,001,15,2021_Nov_08_1402,task-switching-replication,2021.2.3,59.99413547622079,
1,9,untimed,15,sitting,switch,incongruant,solid,triangle,yellow,stimuli/solid-rectangle.png,stimuli/yellow-triangle.png,1,0,8,8,8,,,,,,,,,,,,,,,,,,,,,,,,,,,,,,,,,,,,,,,,,,,,,,,,,,,,,,,,,,,,,,,,,,,,,,,,,,,,,,,,,,,,,,,,,,,,,,,1636401866.3681905,264.82934403419495,None,265.80157804489136,None,1,1,0.8936619758605957,265.80157804489136,None,266.83919310569763,None,,,,,,,,,,,,,,,,,,,,,,,,,,,,,,,,,,,,,,,,,,,,,,,,,,,,,,,,,8011,001,15,2021_Nov_08_1402,task-switching-replication,2021.2.3,59.99413547622079,
1,10,untimed,15,sitting,noswitch,congruant,solid,triangle,blue,stimuli/solid-rectangle.png,stimuli/blue-triangle.png,1,0,9,9,9,0,0,0,0,,,,,,,,,,,,,,,,,,,,,,,,,,,,,,,,,,,,,,,,,,,,,,,,,,,,,,,,,,,,,,,,,,,,,,,,,,,,,,,,,,,,,,,,,,,1636401868.6656945,267.0693850517273,None,268.040461063385,None,2,0,0.9669270515441895,268.040461063385,None,,,,,,,269.10931038856506,270.1274960041046,269.14126205444336,None,,,,,,,,,,,,,,,,,,,,,,,,,,,,,,,,,,,,,,,,,,,,,,,,,8011,001,15,2021_Nov_08_1402,task-switching-replication,2021.2.3,59.99413547622079,
1,10,untimed,15,sitting,noswitch,congruant,solid,triangle,blue,stimuli/solid-rectangle.png,stimuli/blue-triangle.png,1,0,9,9,9,,,,,,,,,,,,,,,,,,,,,,,,,,,,,,,,,,,,,,,,,,,,,,,,,,,,,,,,,,,,,,,,,,,,,,,,,,,,,,,,,,,,,,,,,,,,,,,,,,,,,,,,,274.1711530685425,None,,,,,,,,,,,,,,,,,,,,,,,,,,,,,,,,,,,,,,,,,,,,,,,,,,,,,,,,,8011,001,15,2021_Nov_08_1402,task-switching-replication,2021.2.3,59.99413547622079,
1,11,untimed,15,sitting,noswitch,incongruant,solid,square,yellow,stimuli/solid-rectangle.png,stimuli/yellow-square.png,2,0,10,10,10,0,0,0,0,,,,,,,,,,,,,,,,,,,,,,,,,,,,,,,,,,,,,,,,,,,,,,,,,,,,,,,,,,,,,,,,,,,,,,,,,,,,,,,,,,,,,,,,,,,1636401875.671038,274.3686640262604,None,275.34071707725525,None,1,0,0.6722049713134766,275.34071707725525,None,,,,,,,276.1146674156189,277.1674520969391,276.14664101600647,None,,,,,,,,,,,,,,,,,,,,,,,,,,,,,,,,,,,,,,,,,,,,,,,,,8011,001,15,2021_Nov_08_1402,task-switching-replication,2021.2.3,59.99413547622079,
1,11,untimed,15,sitting,noswitch,incongruant,solid,square,yellow,stimuli/solid-rectangle.png,stimuli/yellow-square.png,2,0,10,10,10,,,,,,,,,,,,,,,,,,,,,,,,,,,,,,,,,,,,,,,,,,,,,,,,,,,,,,,,,,,,,,,,,,,,,,,,,,,,,,,,,,,,,,,,,,,,,,,,,,,,,,,,,281.1460270881653,None,,,,,,,,,,,,,,,,,,,,,,,,,,,,,,,,,,,,,,,,,,,,,,,,,,,,,,,,,8011,001,15,2021_Nov_08_1402,task-switching-replication,2021.2.3,59.99413547622079,
1,12,untimed,15,sitting,noswitch,incongruant,solid,triangle,yellow,stimuli/solid-rectangle.png,stimuli/yellow-triangle.png,1,0,11,11,11,,,,,,,,,,,,,,,,,,,,,,,,,,,,,,,,,,,,,,,,,,,,,,,,,,,,,,,,,,,,,,,,,,,,,,,,,,,,,,,,,,,,,,,,,,,,,,,1636401882.4332676,281.375559091568,None,282.34798097610474,None,1,1,0.4511580467224121,282.34798097610474,None,282.90498900413513,None,,,,,,,,,,,,,,,,,,,,,,,,,,,,,,,,,,,,,,,,,,,,,,,,,,,,,,,,,8011,001,15,2021_Nov_08_1402,task-switching-replication,2021.2.3,59.99413547622079,
,,,15,,,,,,,,,,,,,,,,,,,,,,,,,,,,,,,,,,,,,,,,,,,,,,,,,,,,,,,,,,,,,,,,,,,,,,,,,,,,,,,,,,,,,,,,,,,,,,,,,,,,,,,,,,,,,,,,,,,,,,,,,,,,,,,,283.13560700416565,None,2,4.1226701736450195,283.13560700416565,None,,,,,,,,,,,,,,,,,,,,,,,,,,,,,,,,,,,,,,,,,,,8011,001,15,2021_Nov_08_1402,task-switching-replication,2021.2.3,59.99413547622079,
,,,15,,,,,,,,,,,,,,,,,,,,,,,,,,,,,,,,,,,,,,,,,,,,,,,,,,,,,,,,,,,,,,,,,,,,,,,,,,,,,,,,,,,,,,,,,,,,,,,,,,,,,,,,,,,,,,,,,,,,,,,,,,,,,,,,,,,,,,287.3845019340515,None,2,30.065308809280396,287.3845019340515,None,,,,,,,,,,,,,,,,,,,,,,,,,,,,,,,,,,,,,8011,001,15,2021_Nov_08_1402,task-switching-replication,2021.2.3,59.99413547622079,
1,1,timed,15,sitting,buffer,buffer,dashed,triangle,blue,stimuli/dashed-rectangle.png,stimuli/blue-triangle.png,2,,,,,,,,,,,,,0,0,0,0,,,,,0,0,0,0,,,,,,,,,,,,,,,,,,,,,,,,,,,,,,,,,,,,,,,,,,,,,,,,,,,,,,,,,,,,,,,,,,,,,,,,,,,1636401918.8795261,,,,,,,,,,,,319.3231625556946,320.3418619632721,319.35605096817017,None,,,,,,,,,,,,,,,,,317.5701711177826,None,318.5593059062958,None,1,0,0.6326730251312256,318.5593059062958,None,,,,,,,,,,,,,,,,,,,,,,,,,,,,8011,001,15,2021_Nov_08_1402,task-switching-replication,2021.2.3,59.99413547622079,
1,1,timed,15,sitting,buffer,buffer,dashed,triangle,blue,stimuli/dashed-rectangle.png,stimuli/blue-triangle.png,2,,,,,,,,,,,,,0,0,0,0,,,,,,,,,,,,,,,,,,,,,,,,,,,,,,,,,,,,,,,,,,,,,,,,,,,,,,,,,,,,,,,,,,,,,,,,,,,,,,,,,,,,,,,,,,,,,324.3538510799408,None,,,,,,,,,,,,,,,,,,,,,,,,,,,,,,,,,,,,,,,,,,,,,,,,,,,,,,,,,8011,001,15,2021_Nov_08_1402,task-switching-replication,2021.2.3,59.99413547622079,
1,2,timed,15,sitting,switch,congruant,solid,square,blue,stimuli/solid-rectangle.png,stimuli/blue-square.png,2,,,,,,,,,,,,,0,1,1,1,0,0,0,0,,,,,,,,,,,,,,,,,,,,,,,,,,,,,,,,,,,,,,,,,,,,,,,,,,,,,,,,,,,,,,,,,,,,,,,,,,,,,,,1636401926.6010716,,,,,,,,,,,,,,,,327.0539054393769,328.1051170825958,327.0851049423218,None,,,,,,,,,,,,,324.583377122879,None,325.57292103767395,None,None,0,,325.57292103767395,None,,,,,,,,,,,,,,,,,,,,,,,,,,,,8011,001,15,2021_Nov_08_1402,task-switching-replication,2021.2.3,59.99413547622079,
1,2,timed,15,sitting,switch,congruant,solid,square,blue,stimuli/solid-rectangle.png,stimuli/blue-square.png,2,,,,,,,,,,,,,0,1,1,1,,,,,,,,,,,,,,,,,,,,,,,,,,,,,,,,,,,,,,,,,,,,,,,,,,,,,,,,,,,,,,,,,,,,,,,,,,,,,,,,,,,,,,,,,,,,,332.114226102829,None,,,,,,,,,,,,,,,,,,,,,,,,,,,,,,,,,,,,,,,,,,,,,,,,,,,,,,,,,8011,001,15,2021_Nov_08_1402,task-switching-replication,2021.2.3,59.99413547622079,
1,3,timed,15,sitting,switch,congruant,dashed,triangle,blue,stimuli/dashed-rectangle.png,stimuli/blue-triangle.png,2,,,,,,,,,,,,,0,2,2,2,,,,,,,,,,,,,,,,,,,,,,,,,,,,,,,,,,,,,,,,,,,,,,,,,,,,,,,,,,,,,,,,,,,,,,,,,,,,,,,,,,,1636401933.9736903,,,,,,,,,,334.44551396369934,None,,,,,,,,,,,,,,,,,,,,,332.3115041255951,None,333.300724029541,None,2,1,1.0531189441680908,333.300724029541,None,,,,,,,,,,,,,,,,,,,,,,,,,,,,8011,001,15,2021_Nov_08_1402,task-switching-replication,2021.2.3,59.99413547622079,
1,4,timed,15,sitting,switch,congruant,solid,square,yellow,stimuli/solid-rectangle.png,stimuli/yellow-square.png,2,,,,,,,,,,,,,0,3,3,3,,,,,,,,,,,,,,,,,,,,,,,,,,,,,,,,,,,,,,,,,,,,,,,,,,,,,,,,,,,,,,,,,,,,,,,,,,,,,,,,,,,1636401936.3371975,,,,,,,,,,336.8089430332184,None,,,,,,,,,,,,,,,,,,,,,334.6748719215393,None,335.66429805755615,None,2,1,1.001439094543457,335.66429805755615,None,,,,,,,,,,,,,,,,,,,,,,,,,,,,8011,001,15,2021_Nov_08_1402,task-switching-replication,2021.2.3,59.99413547622079,
1,5,timed,15,sitting,noswitch,incongruant,solid,triangle,blue,stimuli/solid-rectangle.png,stimuli/blue-triangle.png,1,,,,,,,,,,,,,0,4,4,4,,,,,,,,,,,,,,,,,,,,,,,,,,,,,,,,,,,,,,,,,,,,,,,,,,,,,,,,,,,,,,,,,,,,,,,,,,,,,,,,,,,1636401938.2913046,,,,,,,,,,338.7621200084686,None,,,,,,,,,,,,,,,,,,,,,337.03837394714355,None,338.02834701538086,None,1,1,0.6050231456756592,338.02834701538086,None,,,,,,,,,,,,,,,,,,,,,,,,,,,,8011,001,15,2021_Nov_08_1402,task-switching-replication,2021.2.3,59.99413547622079,
1,6,timed,15,sitting,switch,incongruant,dashed,square,blue,stimuli/dashed-rectangle.png,stimuli/blue-square.png,2,,,,,,,,,,,,,0,5,5,5,,,,,,,,,,,,,,,,,,,,,,,,,,,,,,,,,,,,,,,,,,,,,,,,,,,,,,,,,,,,,,,,,,,,,,,,,,,,,,,,,,,1636401940.0063386,,,,,,,,,,340.4773209095001,None,,,,,,,,,,,,,,,,,,,,,338.99174094200134,None,339.9818980693817,None,2,1,0.3670220375061035,339.9818980693817,None,,,,,,,,,,,,,,,,,,,,,,,,,,,,8011,001,15,2021_Nov_08_1402,task-switching-replication,2021.2.3,59.99413547622079,
1,7,timed,15,sitting,noswitch,incongruant,dashed,triangle,yellow,stimuli/dashed-rectangle.png,stimuli/yellow-triangle.png,1,,,,,,,,,,,,,0,6,6,6,,,,,,,,,,,,,,,,,,,,,,,,,,,,,,,,,,,,,,,,,,,,,,,,,,,,,,,,,,,,,,,,,,,,,,,,,,,,,,,,,,,1636401941.9533415,,,,,,,,,,342.4248161315918,None,,,,,,,,,,,,,,,,,,,,,340.7065830230713,None,341.69538497924805,None,1,1,0.6261019706726074,341.69538497924805,None,,,,,,,,,,,,,,,,,,,,,,,,,,,,8011,001,15,2021_Nov_08_1402,task-switching-replication,2021.2.3,59.99413547622079,
1,8,timed,15,sitting,switch,congruant,solid,triangle,yellow,stimuli/solid-rectangle.png,stimuli/yellow-triangle.png,1,,,,,,,,,,,,,0,7,7,7,,,,,,,,,,,,,,,,,,,,,,,,,,,,,,,,,,,,,,,,,,,,,,,,,,,,,,,,,,,,,,,,,,,,,,,,,,,,,,,,,,,1636401944.0787158,,,,,,,,,,344.5505609512329,None,,,,,,,,,,,,,,,,,,,,,342.6540880203247,None,343.6431550979614,None,1,1,0.8023838996887207,343.6431550979614,None,,,,,,,,,,,,,,,,,,,,,,,,,,,,8011,001,15,2021_Nov_08_1402,task-switching-replication,2021.2.3,59.99413547622079,
1,9,timed,15,sitting,noswitch,congruant,solid,triangle,blue,stimuli/solid-rectangle.png,stimuli/blue-triangle.png,1,,,,,,,,,,,,,0,8,8,8,,,,,,,,,,,,,,,,,,,,,,,,,,,,,,,,,,,,,,,,,,,,,,,,,,,,,,,,,,,,,,,,,,,,,,,,,,,,,,,,,,,1636401945.7896023,,,,,,,,,,346.26141810417175,None,,,,,,,,,,,,,,,,,,,,,344.7799139022827,None,345.76836490631104,None,1,1,0.35421013832092285,345.76836490631104,None,,,,,,,,,,,,,,,,,,,,,,,,,,,,8011,001,15,2021_Nov_08_1402,task-switching-replication,2021.2.3,59.99413547622079,
1,10,timed,15,sitting,noswitch,incongruant,solid,square,blue,stimuli/solid-rectangle.png,stimuli/blue-square.png,2,,,,,,,,,,,,,0,9,9,9,,,,,,,,,,,,,,,,,,,,,,,,,,,,,,,,,,,,,,,,,,,,,,,,,,,,,,,,,,,,,,,,,,,,,,,,,,,,,,,,,,,1636401947.440972,,,,,,,,,,347.9125919342041,None,,,,,,,,,,,,,,,,,,,,,346.4909360408783,None,347.4792990684509,None,2,1,0.31768298149108887,347.4792990684509,None,,,,,,,,,,,,,,,,,,,,,,,,,,,,8011,001,15,2021_Nov_08_1402,task-switching-replication,2021.2.3,59.99413547622079,
1,11,timed,15,sitting,noswitch,incongruant,solid,triangle,yellow,stimuli/solid-rectangle.png,stimuli/yellow-triangle.png,1,,,,,,,,,,,,,0,10,10,10,,,,,,,,,,,,,,,,,,,,,,,,,,,,,,,,,,,,,,,,,,,,,,,,,,,,,,,,,,,,,,,,,,,,,,,,,,,,,,,,,,,1636401949.3906589,,,,,,,,,,349.8617260456085,None,,,,,,,,,,,,,,,,,,,,,348.14165711402893,None,349.13059091567993,None,1,1,0.5921800136566162,349.13059091567993,None,,,,,,,,,,,,,,,,,,,,,,,,,,,,8011,001,15,2021_Nov_08_1402,task-switching-replication,2021.2.3,59.99413547622079,
1,12,timed,15,sitting,switch,congruant,dashed,square,yellow,stimuli/dashed-rectangle.png,stimuli/yellow-square.png,1,,,,,,,,,,,,,0,11,11,11,,,,,0,0,0,0,,,,,,,,,,,,,,,,,,,,,,,,,,,,,,,,,,,,,,,,,,,,,,,,,,,,,,,,,,,,,,,,,,,,,,,,,,,1636401951.3420756,,,,,,,,,,,,351.78571248054504,352.8055589199066,351.81804609298706,None,,,,,,,,,,,,,,,,,350.0916509628296,None,351.0799210071564,None,2,0,0.5745930671691895,351.0799210071564,None,,,,,,,,,,,,,,,,,,,,,,,,,,,,8011,001,15,2021_Nov_08_1402,task-switching-replication,2021.2.3,59.99413547622079,
1,12,timed,15,sitting,switch,congruant,dashed,square,yellow,stimuli/dashed-rectangle.png,stimuli/yellow-square.png,1,,,,,,,,,,,,,0,11,11,11,,,,,,,,,,,,,,,,,,,,,,,,,,,,,,,,,,,,,,,,,,,,,,,,,,,,,,,,,,,,,,,,,,,,,,,,,,,,,,,,,,,,,,,,,,,,,356.8175060749054,None,,,,,,,,,,,,,,,,,,,,,,,,,,,,,,,,,,,,,,,,,,,,,,,,,,,,,,,,,8011,001,15,2021_Nov_08_1402,task-switching-replication,2021.2.3,59.99413547622079,
1,13,timed,15,sitting,switch,congruant,solid,triangle,blue,stimuli/solid-rectangle.png,stimuli/blue-triangle.png,1,,,,,,,,,,,,,0,12,12,12,,,,,,,,,,,,,,,,,,,,,,,,,,,,,,,,,,,,,,,,,,,,,,,,,,,,,,,,,,,,,,,,,,,,,,,,,,,,,,,,,,,1636401958.735744,,,,,,,,,,359.206906080246,None,,,,,,,,,,,,,,,,,,,,,357.0155110359192,None,358.00447702407837,None,1,1,1.1033189296722412,358.00447702407837,None,,,,,,,,,,,,,,,,,,,,,,,,,,,,8011,001,15,2021_Nov_08_1402,task-switching-replication,2021.2.3,59.99413547622079,
1,14,timed,15,sitting,noswitch,incongruant,solid,square,blue,stimuli/solid-rectangle.png,stimuli/blue-square.png,2,,,,,,,,,,,,,0,13,13,13,,,,,,,,,,,,,,,,,,,,,,,,,,,,,,,,,,,,,,,,,,,,,,,,,,,,,,,,,,,,,,,,,,,,,,,,,,,,,,,,,,,1636401960.6299562,,,,,,,,,,361.1009359359741,None,,,,,,,,,,,,,,,,,,,,,359.4362609386444,None,360.42512702941895,None,2,1,0.5512969493865967,360.42512702941895,None,,,,,,,,,,,,,,,,,,,,,,,,,,,,8011,001,15,2021_Nov_08_1402,task-switching-replication,2021.2.3,59.99413547622079,
1,15,timed,15,sitting,noswitch,congruant,solid,square,yellow,stimuli/solid-rectangle.png,stimuli/yellow-square.png,2,,,,,,,,,,,,,0,14,14,14,,,,,,,,,,,,,,,,,,,,,,,,,,,,,,,,,,,,,,,,,,,,,,,,,,,,,,,,,,,,,,,,,,,,,,,,,,,,,,,,,,,1636401962.282232,,,,,,,,,,362.7540969848633,None,,,,,,,,,,,,,,,,,,,,,361.3309350013733,None,362.3204040527344,None,2,1,0.3392319679260254,362.3204040527344,None,,,,,,,,,,,,,,,,,,,,,,,,,,,,8011,001,15,2021_Nov_08_1402,task-switching-replication,2021.2.3,59.99413547622079,
1,16,timed,15,sitting,noswitch,congruant,solid,square,yellow,stimuli/solid-rectangle.png,stimuli/yellow-square.png,2,,,,,,,,,,,,,0,15,15,15,,,,,,,,,,,,,,,,,,,,,,,,,,,,,,,,,,,,,,,,,,,,,,,,,,,,,,,,,,,,,,,,,,,,,,,,,,,,,,,,,,,1636401963.9362414,,,,,,,,,,364.408145904541,None,,,,,,,,,,,,,,,,,,,,,362.9837040901184,None,363.9735429286957,None,2,1,0.3150489330291748,363.9735429286957,None,,,,,,,,,,,,,,,,,,,,,,,,,,,,8011,001,15,2021_Nov_08_1402,task-switching-replication,2021.2.3,59.99413547622079,
1,17,timed,15,sitting,switch,congruant,dashed,square,blue,stimuli/dashed-rectangle.png,stimuli/blue-square.png,2,,,,,,,,,,,,,0,16,16,16,,,,,,,,,,,,,,,,,,,,,,,,,,,,,,,,,,,,,,,,,,,,,,,,,,,,,,,,,,,,,,,,,,,,,,,,,,,,,,,,,,,1636401965.7111163,,,,,,,,,,366.1830189228058,None,,,,,,,,,,,,,,,,,,,,,364.6378059387207,None,365.63060998916626,None,2,1,0.4031240940093994,365.63060998916626,None,,,,,,,,,,,,,,,,,,,,,,,,,,,,8011,001,15,2021_Nov_08_1402,task-switching-replication,2021.2.3,59.99413547622079,
1,18,timed,15,sitting,noswitch,incongruant,dashed,square,yellow,stimuli/dashed-rectangle.png,stimuli/yellow-square.png,1,,,,,,,,,,,,,0,17,17,17,,,,,,,,,,,,,,,,,,,,,,,,,,,,,,,,,,,,,,,,,,,,,,,,,,,,,,,,,,,,,,,,,,,,,,,,,,,,,,,,,,,1636401968.2545528,,,,,,,,,,368.72558999061584,None,,,,,,,,,,,,,,,,,,,,,366.41234707832336,None,367.4014639854431,None,1,1,1.1905691623687744,367.4014639854431,None,,,,,,,,,,,,,,,,,,,,,,,,,,,,8011,001,15,2021_Nov_08_1402,task-switching-replication,2021.2.3,59.99413547622079,
1,19,timed,15,sitting,noswitch,incongruant,dashed,square,blue,stimuli/dashed-rectangle.png,stimuli/blue-square.png,2,,,,,,,,,,,,,0,18,18,18,,,,,,,,,,,,,,,,,,,,,,,,,,,,,,,,,,,,,,,,,,,,,,,,,,,,,,,,,,,,,,,,,,,,,,,,,,,,,,,,,,,1636401970.2019966,,,,,,,,,,370.67410612106323,None,,,,,,,,,,,,,,,,,,,,,368.95509791374207,None,369.94364309310913,None,2,1,0.6190838813781738,369.94364309310913,None,,,,,,,,,,,,,,,,,,,,,,,,,,,,8011,001,15,2021_Nov_08_1402,task-switching-replication,2021.2.3,59.99413547622079,
1,20,timed,15,sitting,noswitch,incongruant,dashed,square,yellow,stimuli/dashed-rectangle.png,stimuli/yellow-square.png,1,,,,,,,,,,,,,0,19,19,19,,,,,,,,,,,,,,,,,,,,,,,,,,,,,,,,,,,,,,,,,,,,,,,,,,,,,,,,,,,,,,,,,,,,,,,,,,,,,,,,,,,1636401972.393073,,,,,,,,,,372.86409401893616,None,,,,,,,,,,,,,,,,,,,,,370.9039640426636,None,371.8939599990845,None,1,1,0.845937967300415,371.8939599990845,None,,,,,,,,,,,,,,,,,,,,,,,,,,,,8011,001,15,2021_Nov_08_1402,task-switching-replication,2021.2.3,59.99413547622079,
1,21,timed,15,sitting,noswitch,congruant,dashed,triangle,yellow,stimuli/dashed-rectangle.png,stimuli/yellow-triangle.png,1,,,,,,,,,,,,,0,20,20,20,,,,,,,,,,,,,,,,,,,,,,,,,,,,,,,,,,,,,,,,,,,,,,,,,,,,,,,,,,,,,,,,,,,,,,,,,,,,,,,,,,,1636401974.0443332,,,,,,,,,,374.51622009277344,None,,,,,,,,,,,,,,,,,,,,,373.0934510231018,None,374.0824611186981,None,1,1,0.32390284538269043,374.0824611186981,None,,,,,,,,,,,,,,,,,,,,,,,,,,,,8011,001,15,2021_Nov_08_1402,task-switching-replication,2021.2.3,59.99413547622079,
1,22,timed,15,sitting,noswitch,incongruant,dashed,triangle,blue,stimuli/dashed-rectangle.png,stimuli/blue-triangle.png,2,,,,,,,,,,,,,0,21,21,21,,,,,,,,,,,,,,,,,,,,,,,,,,,,,,,,,,,,,,,,,,,,,,,,,,,,,,,,,,,,,,,,,,,,,,,,,,,,,,,,,,,1636401975.9933307,,,,,,,,,,376.4648880958557,None,,,,,,,,,,,,,,,,,,,,,374.74563002586365,None,375.7353639602661,None,2,1,0.6250519752502441,375.7353639602661,None,,,,,,,,,,,,,,,,,,,,,,,,,,,,8011,001,15,2021_Nov_08_1402,task-switching-replication,2021.2.3,59.99413547622079,
1,23,timed,15,sitting,switch,incongruant,solid,triangle,yellow,stimuli/solid-rectangle.png,stimuli/yellow-triangle.png,1,,,,,,,,,,,,,0,22,22,22,,,,,,,,,,,,,,,,,,,,,,,,,,,,,,,,,,,,,,,,,,,,,,,,,,,,,,,,,,,,,,,,,,,,,,,,,,,,,,,,,,,1636401978.0006623,,,,,,,,,,378.4725649356842,None,,,,,,,,,,,,,,,,,,,,,376.6940689086914,None,377.68327713012695,None,1,1,0.6834349632263184,377.68327713012695,None,,,,,,,,,,,,,,,,,,,,,,,,,,,,8011,001,15,2021_Nov_08_1402,task-switching-replication,2021.2.3,59.99413547622079,
1,24,timed,15,sitting,switch,congruant,dashed,triangle,yellow,stimuli/dashed-rectangle.png,stimuli/yellow-triangle.png,1,,,,,,,,,,,,,0,23,23,23,,,,,,,,,,,,,,,,,,,,,,,,,,,,,,,,,,,,,,,,,,,,,,,,,,,,,,,,,,,,,,,,,,,,,,,,,,,,,,,,,,,1636401980.1867614,,,,,,,,,,380.6585819721222,None,,,,,,,,,,,,,,,,,,,,,378.7019441127777,None,379.69142293930054,None,1,1,0.8510758876800537,379.69142293930054,None,,,,,,,,,,,,,,,,,,,,,,,,,,,,8011,001,15,2021_Nov_08_1402,task-switching-replication,2021.2.3,59.99413547622079,
1,1,experiment,15,sitting,buffer,buffer,dashed,triangle,blue,stimuli/dashed-rectangle.png,stimuli/blue-triangle.png,2,,,,,,,,,,,,,,,,,,,,,,,,,0,0,0,0,0,0,0,0,0,0,0,0,,,,,0,0,0,0,380.9004900455475,None,2,122.56656885147095,380.9004900455475,None,,,,,,,,,,,,,,,,,,,,,,,,,,,,,,,,,,,,,,,,,,,,,,,,,1636402111.35784,,,,,,,,,,,,511.8107134819031,512.8634040355682,511.84252190589905,None,,,,,,,,,,,,,,,,,,,,,,,,,,503.5814950466156,None,2,4.113445997238159,503.5814950466156,None,507.78437304496765,None,2,1.3554329872131348,507.78437304496765,None,509.2803590297699,None,510.27073907852173,None,None,0,510.27073907852173,None,,,,,,,,8011,001,15,2021_Nov_08_1402,task-switching-replication,2021.2.3,59.99413547622079,
1,1,experiment,15,sitting,buffer,buffer,dashed,triangle,blue,stimuli/dashed-rectangle.png,stimuli/blue-triangle.png,2,,,,,,,,,,,,,,,,,,,,,,,,,0,0,0,0,0,0,0,0,0,0,0,0,,,,,,,,,,,,,,,,,,,,,,,,,,,,,,,,,,,,,,,,,,,,,,,,,,,,,,,,,,,,,,,,,,,,,,,,,516.8718550205231,None,,,,,,,,,,,,,,,,,,,,,,,,,,,,,,,,,,,,,,,,,,,,,,,,,,,,,,,,,8011,001,15,2021_Nov_08_1402,task-switching-replication,2021.2.3,59.99413547622079,
1,2,experiment,15,sitting,switch,incongruant,solid,triangle,blue,stimuli/solid-rectangle.png,stimuli/blue-triangle.png,1,,,,,,,,,,,,,,,,,,,,,,,,,0,0,0,0,0,0,0,0,0,1,1,1,,,,,,,,,,,,,,,,,,,,,,,,,,,,,,,,,,,,,,,,,,,,,,,,,,,,,,,,,,,,,,,1636402118.3759398,,,,,,,,,,518.8474390506744,None,,,,,,,,,,,,,,,,,,,,,,,,,,,,,,,,,,,,,,,,,,517.0687019824982,None,518.0588510036469,None,1,1,518.0588510036469,None,0.6779420375823975,,,,,,,8011,001,15,2021_Nov_08_1402,task-switching-replication,2021.2.3,59.99413547622079,
1,3,experiment,15,sitting,noswitch,congruant,solid,triangle,blue,stimuli/solid-rectangle.png,stimuli/blue-triangle.png,1,,,,,,,,,,,,,,,,,,,,,,,,,0,0,0,0,0,0,0,0,0,2,2,2,,,,,,,,,,,,,,,,,,,,,,,,,,,,,,,,,,,,,,,,,,,,,,,,,,,,,,,,,,,,,,,1636402120.3826642,,,,,,,,,,520.854334115982,None,,,,,,,,,,,,,,,,,,,,,,,,,,,,,,,,,,,,,,,,,,519.0765640735626,None,520.0653550624847,None,1,1,520.0653550624847,None,0.6563019752502441,,,,,,,8011,001,15,2021_Nov_08_1402,task-switching-replication,2021.2.3,59.99413547622079,
1,4,experiment,15,sitting,switch,incongruant,dashed,square,blue,stimuli/dashed-rectangle.png,stimuli/blue-square.png,2,,,,,,,,,,,,,,,,,,,,,,,,,0,0,0,0,0,0,0,0,0,3,3,3,,,,,,,,,,,,,,,,,,,,,,,,,,,,,,,,,,,,,,,,,,,,,,,,,,,,,,,,,,,,,,,1636402122.8038948,,,,,,,,,,523.2761690616608,None,,,,,,,,,,,,,,,,,,,,,,,,,,,,,,,,,,,,,,,,,,521.0835440158844,None,522.0721549987793,None,2,1,522.0721549987793,None,1.0850539207458496,,,,,,,8011,001,15,2021_Nov_08_1402,task-switching-replication,2021.2.3,59.99413547622079,
1,5,experiment,15,sitting,noswitch,incongruant,dashed,square,yellow,stimuli/dashed-rectangle.png,stimuli/yellow-square.png,1,,,,,,,,,,,,,,,,,,,,,,,,,0,0,0,0,0,0,0,0,0,4,4,4,,,,,0,0,0,0,,,,,,,,,,,,,,,,,,,,,,,,,,,,,,,,,,,,,,,,,,,,,,,,,,,,,,,1636402124.5756714,,,,,,,,,,,,525.0192334651947,526.0383279323578,525.0538060665131,None,,,,,,,,,,,,,,,,,,,,,,,,,,,,,,,,,,,,,,523.5059530735016,None,524.4950029850006,None,2,0,524.4950029850006,None,0.42575693130493164,,,,,,,8011,001,15,2021_Nov_08_1402,task-switching-replication,2021.2.3,59.99413547622079,
1,5,experiment,15,sitting,noswitch,incongruant,dashed,square,yellow,stimuli/dashed-rectangle.png,stimuli/yellow-square.png,1,,,,,,,,,,,,,,,,,,,,,,,,,0,0,0,0,0,0,0,0,0,4,4,4,,,,,,,,,,,,,,,,,,,,,,,,,,,,,,,,,,,,,,,,,,,,,,,,,,,,,,,,,,,,,,,,,,,,,,,,,530.0492091178894,None,,,,,,,,,,,,,,,,,,,,,,,,,,,,,,,,,,,,,,,,,,,,,,,,,,,,,,,,,8011,001,15,2021_Nov_08_1402,task-switching-replication,2021.2.3,59.99413547622079,
1,6,experiment,15,sitting,noswitch,congruant,dashed,square,yellow,stimuli/dashed-rectangle.png,stimuli/yellow-square.png,1,,,,,,,,,,,,,,,,,,,,,,,,,0,0,0,0,0,0,0,0,0,5,5,5,,,,,,,,,,,,,,,,,,,,,,,,,,,,,,,,,,,,,,,,,,,,,,,,,,,,,,,,,,,,,,,1636402132.0042007,,,,,,,,,,532.475250005722,None,,,,,,,,,,,,,,,,,,,,,,,,,,,,,,,,,,,,,,,,,,530.2783861160278,None,531.2678260803223,None,1,1,531.2678260803223,None,1.0637760162353516,,,,,,,8011,001,15,2021_Nov_08_1402,task-switching-replication,2021.2.3,59.99413547622079,
1,7,experiment,15,sitting,noswitch,incongruant,dashed,triangle,blue,stimuli/dashed-rectangle.png,stimuli/blue-triangle.png,2,,,,,,,,,,,,,,,,,,,,,,,,,0,0,0,0,0,0,0,0,0,6,6,6,,,,,0,0,0,0,,,,,,,,,,,,,,,,,,,,,,,,,,,,,,,,,,,,,,,,,,,,,,,,,,,,,,,1636402134.779833,,,,,,,,,,,,535.2326464176178,536.2840809822083,535.2641909122467,None,,,,,,,,,,,,,,,,,,,,,,,,,,,,,,,,,,,,,,532.7047119140625,None,533.6933789253235,None,None,0,533.6933789253235,None,,,,,,,,8011,001,15,2021_Nov_08_1402,task-switching-replication,2021.2.3,59.99413547622079,
1,7,experiment,15,sitting,noswitch,incongruant,dashed,triangle,blue,stimuli/dashed-rectangle.png,stimuli/blue-triangle.png,2,,,,,,,,,,,,,,,,,,,,,,,,,0,0,0,0,0,0,0,0,0,6,6,6,,,,,,,,,,,,,,,,,,,,,,,,,,,,,,,,,,,,,,,,,,,,,,,,,,,,,,,,,,,,,,,,,,,,,,,,,540.2929351329803,None,,,,,,,,,,,,,,,,,,,,,,,,,,,,,,,,,,,,,,,,,,,,,,,,,,,,,,,,,8011,001,15,2021_Nov_08_1402,task-switching-replication,2021.2.3,59.99413547622079,
1,8,experiment,15,sitting,noswitch,incongruant,dashed,square,yellow,stimuli/dashed-rectangle.png,stimuli/yellow-square.png,1,,,,,,,,,,,,,,,,,,,,,,,,,0,0,0,0,0,0,0,0,0,7,7,7,,,,,,,,,,,,,,,,,,,,,,,,,,,,,,,,,,,,,,,,,,,,,,,,,,,,,,,,,,,,,,,1636402142.0942361,,,,,,,,,,542.5674300193787,None,,,,,,,,,,,,,,,,,,,,,,,,,,,,,,,,,,,,,,,,,,540.4909501075745,None,541.4799749851227,None,1,1,541.4799749851227,None,0.9896409511566162,,,,,,,8011,001,15,2021_Nov_08_1402,task-switching-replication,2021.2.3,59.99413547622079,
1,9,experiment,15,sitting,switch,incongruant,solid,square,yellow,stimuli/solid-rectangle.png,stimuli/yellow-square.png,2,,,,,,,,,,,,,,,,,,,,,,,,,0,0,0,0,0,0,0,0,0,8,8,8,0,0,0,0,,,,,,,,,,,,,,,,,,,,,,,,,,,,,,,,,,,,,,,,,,,,,,,,,,,,,,,,,,,1636402144.4023206,,,,,,,,,,,,,,,,544.8459074497223,545.8643810749054,544.878839969635,None,,,,,,,,,,,,,,,,,,,,,,,,,,,,,,,,,,542.7973330020905,None,543.787435054779,None,1,0,543.787435054779,None,0.9481589794158936,,,,,,,8011,001,15,2021_Nov_08_1402,task-switching-replication,2021.2.3,59.99413547622079,
1,9,experiment,15,sitting,switch,incongruant,solid,square,yellow,stimuli/solid-rectangle.png,stimuli/yellow-square.png,2,,,,,,,,,,,,,,,,,,,,,,,,,0,0,0,0,0,0,0,0,0,8,8,8,,,,,,,,,,,,,,,,,,,,,,,,,,,,,,,,,,,,,,,,,,,,,,,,,,,,,,,,,,,,,,,,,,,,,,,,,549.8795719146729,None,,,,,,,,,,,,,,,,,,,,,,,,,,,,,,,,,,,,,,,,,,,,,,,,,,,,,,,,,8011,001,15,2021_Nov_08_1402,task-switching-replication,2021.2.3,59.99413547622079,
1,10,experiment,15,sitting,noswitch,incongruant,solid,triangle,blue,stimuli/solid-rectangle.png,stimuli/blue-triangle.png,1,,,,,,,,,,,,,,,,,,,,,,,,,0,0,0,0,0,0,0,0,0,9,9,9,0,0,0,0,,,,,,,,,,,,,,,,,,,,,,,,,,,,,,,,,,,,,,,,,,,,,,,,,,,,,,,,,,,1636402152.1543689,,,,,,,,,,,,,,,,552.6071643352509,553.6598019599915,552.6384449005127,None,,,,,,,,,,,,,,,,,,,,,,,,,,,,,,,,,,550.0765569210052,None,551.0660169124603,None,None,0,551.0660169124603,None,,,,,,,,8011,001,15,2021_Nov_08_1402,task-switching-replication,2021.2.3,59.99413547622079,
1,10,experiment,15,sitting,noswitch,incongruant,solid,triangle,blue,stimuli/solid-rectangle.png,stimuli/blue-triangle.png,1,,,,,,,,,,,,,,,,,,,,,,,,,0,0,0,0,0,0,0,0,0,9,9,9,,,,,,,,,,,,,,,,,,,,,,,,,,,,,,,,,,,,,,,,,,,,,,,,,,,,,,,,,,,,,,,,,,,,,,,,,557.6352310180664,None,,,,,,,,,,,,,,,,,,,,,,,,,,,,,,,,,,,,,,,,,,,,,,,,,,,,,,,,,8011,001,15,2021_Nov_08_1402,task-switching-replication,2021.2.3,59.99413547622079,
1,11,experiment,15,sitting,noswitch,incongruant,solid,square,blue,stimuli/solid-rectangle.png,stimuli/blue-square.png,2,,,,,,,,,,,,,,,,,,,,,,,,,0,0,0,0,0,0,0,0,0,10,10,10,0,0,0,0,,,,,,,,,,,,,,,,,,,,,,,,,,,,,,,,,,,,,,,,,,,,,,,,,,,,,,,,,,,1636402159.8842604,,,,,,,,,,,,,,,,560.3373054981232,561.3889889717102,560.3682451248169,None,,,,,,,,,,,,,,,,,,,,,,,,,,,,,,,,,,557.8651549816132,None,558.8562359809875,None,None,0,558.8562359809875,None,,,,,,,,8011,001,15,2021_Nov_08_1402,task-switching-replication,2021.2.3,59.99413547622079,
1,11,experiment,15,sitting,noswitch,incongruant,solid,square,blue,stimuli/solid-rectangle.png,stimuli/blue-square.png,2,,,,,,,,,,,,,,,,,,,,,,,,,0,0,0,0,0,0,0,0,0,10,10,10,,,,,,,,,,,,,,,,,,,,,,,,,,,,,,,,,,,,,,,,,,,,,,,,,,,,,,,,,,,,,,,,,,,,,,,,,565.3977580070496,None,,,,,,,,,,,,,,,,,,,,,,,,,,,,,,,,,,,,,,,,,,,,,,,,,,,,,,,,,8011,001,15,2021_Nov_08_1402,task-switching-replication,2021.2.3,59.99413547622079,
1,12,experiment,15,sitting,switch,incongruant,dashed,triangle,yellow,stimuli/dashed-rectangle.png,stimuli/yellow-triangle.png,1,,,,,,,,,,,,,,,,,,,,,,,,,0,0,0,0,0,0,0,0,0,11,11,11,,,,,0,0,0,0,,,,,,,,,,,,,,,,,,,,,,,,,,,,,,,,,,,,,,,,,,,,,,,,,,,,,,,1636402167.6122892,,,,,,,,,,,,568.068094444275,569.1190359592438,568.0990219116211,None,,,,,,,,,,,,,,,,,,,,,,,,,,,,,,,,,,,,,,565.5946481227875,None,566.5841660499573,None,None,0,566.5841660499573,None,,,,,,,,8011,001,15,2021_Nov_08_1402,task-switching-replication,2021.2.3,59.99413547622079,
1,12,experiment,15,sitting,switch,incongruant,dashed,triangle,yellow,stimuli/dashed-rectangle.png,stimuli/yellow-triangle.png,1,,,,,,,,,,,,,,,,,,,,,,,,,0,0,0,0,0,0,0,0,0,11,11,11,,,,,,,,,,,,,,,,,,,,,,,,,,,,,,,,,,,,,,,,,,,,,,,,,,,,,,,,,,,,,,,,,,,,,,,,,573.1270611286163,None,,,,,,,,,,,,,,,,,,,,,,,,,,,,,,,,,,,,,,,,,,,,,,,,,,,,,,,,,8011,001,15,2021_Nov_08_1402,task-switching-replication,2021.2.3,59.99413547622079,
1,13,experiment,15,sitting,switch,incongruant,solid,square,yellow,stimuli/solid-rectangle.png,stimuli/yellow-square.png,2,,,,,,,,,,,,,,,,,,,,,,,,,0,0,0,0,0,0,0,0,0,12,12,12,,,,,,,,,,,,,,,,,,,,,,,,,,,,,,,,,,,,,,,,,,,,,,,,,,,,,,,,,,,,,,,1636402174.8683906,,,,,,,,,,575.3396990299225,None,,,,,,,,,,,,,,,,,,,,,,,,,,,,,,,,,,,,,,,,,,573.3245189189911,None,574.3138539791107,None,2,1,574.3138539791107,None,0.9298491477966309,,,,,,,8011,001,15,2021_Nov_08_1402,task-switching-replication,2021.2.3,59.99413547622079,
1,14,experiment,15,sitting,noswitch,congruant,solid,square,blue,stimuli/solid-rectangle.png,stimuli/blue-square.png,2,,,,,,,,,,,,,,,,,,,,,,,,,0,0,0,0,0,0,0,0,0,13,13,13,,,,,,,,,,,,,,,,,,,,,,,,,,,,,,,,,,,,,,,,,,,,,,,,,,,,,,,,,,,,,,,1636402176.6982334,,,,,,,,,,577.1700539588928,None,,,,,,,,,,,,,,,,,,,,,,,,,,,,,,,,,,,,,,,,,,575.5690350532532,None,576.5588300228119,None,2,1,576.5588300228119,None,0.505640983581543,,,,,,,8011,001,15,2021_Nov_08_1402,task-switching-replication,2021.2.3,59.99413547622079,
1,15,experiment,15,sitting,noswitch,incongruant,solid,triangle,yellow,stimuli/solid-rectangle.png,stimuli/yellow-triangle.png,1,,,,,,,,,,,,,,,,,,,,,,,,,0,0,0,0,0,0,0,0,0,14,14,14,,,,,,,,,,,,,,,,,,,,,,,,,,,,,,,,,,,,,,,,,,,,,,,,,,,,,,,,,,,,,,,1636402178.5284534,,,,,,,,,,579.0002360343933,None,,,,,,,,,,,,,,,,,,,,,,,,,,,,,,,,,,,,,,,,,,577.3992960453033,None,578.3886649608612,None,1,1,578.3886649608612,None,0.5044999122619629,,,,,,,8011,001,15,2021_Nov_08_1402,task-switching-replication,2021.2.3,59.99413547622079,
1,16,experiment,15,sitting,noswitch,congruant,solid,triangle,yellow,stimuli/solid-rectangle.png,stimuli/yellow-triangle.png,1,,,,,,,,,,,,,,,,,,,,,,,,,0,0,0,0,0,0,0,0,0,15,15,15,,,,,,,,,,,,,,,,,,,,,,,,,,,,,,,,,,,,,,,,,,,,,,,,,,,,,,,,,,,,,,,1636402180.181703,,,,,,,,,,580.6534209251404,None,,,,,,,,,,,,,,,,,,,,,,,,,,,,,,,,,,,,,,,,,,579.2297039031982,None,580.2197151184082,None,1,1,580.2197151184082,None,0.3128058910369873,,,,,,,8011,001,15,2021_Nov_08_1402,task-switching-replication,2021.2.3,59.99413547622079,
1,17,experiment,15,sitting,noswitch,congruant,solid,triangle,yellow,stimuli/solid-rectangle.png,stimuli/yellow-triangle.png,1,,,,,,,,,,,,,,,,,,,,,,,,,0,0,0,0,0,0,0,0,0,16,16,16,,,,,,,,,,,,,,,,,,,,,,,,,,,,,,,,,,,,,,,,,,,,,,,,,,,,,,,,,,,,,,,1636402181.953509,,,,,,,,,,582.4252851009369,None,,,,,,,,,,,,,,,,,,,,,,,,,,,,,,,,,,,,,,,,,,580.8826720714569,None,581.8730249404907,None,1,1,581.8730249404907,None,0.42050600051879883,,,,,,,8011,001,15,2021_Nov_08_1402,task-switching-replication,2021.2.3,59.99413547622079,
1,18,experiment,15,sitting,switch,incongruant,dashed,square,blue,stimuli/dashed-rectangle.png,stimuli/blue-square.png,2,,,,,,,,,,,,,,,,,,,,,,,,,0,0,0,0,0,0,0,0,0,17,17,17,,,,,,,,,,,,,,,,,,,,,,,,,,,,,,,,,,,,,,,,,,,,,,,,,,,,,,,,,,,,,,,1636402183.8430033,,,,,,,,,,584.3755509853363,None,,,,,,,,,,,,,,,,,,,,,,,,,,,,,,,,,,,,,,,,,,582.6544880867004,None,583.6444230079651,None,2,1,583.6444230079651,None,0.5729999542236328,,,,,,,8011,001,15,2021_Nov_08_1402,task-switching-replication,2021.2.3,59.99413547622079,
1,19,experiment,15,sitting,noswitch,congruant,dashed,square,blue,stimuli/dashed-rectangle.png,stimuli/blue-square.png,2,,,,,,,,,,,,,,,,,,,,,,,,,0,0,0,0,0,0,0,0,0,18,18,18,,,,,0,0,0,0,,,,,,,,,,,,,,,,,,,,,,,,,,,,,,,,,,,,,,,,,,,,,,,,,,,,,,,1636402186.6166034,,,,,,,,,,,,587.0693842887879,588.0869860649109,587.1008279323578,None,,,,,,,,,,,,,,,,,,,,,,,,,,,,,,,,,,,,,,584.5404579639435,None,585.529403924942,None,None,0,585.529403924942,None,,,,,,,,8011,001,15,2021_Nov_08_1402,task-switching-replication,2021.2.3,59.99413547622079,
1,19,experiment,15,sitting,noswitch,congruant,dashed,square,blue,stimuli/dashed-rectangle.png,stimuli/blue-square.png,2,,,,,,,,,,,,,,,,,,,,,,,,,0,0,0,0,0,0,0,0,0,18,18,18,,,,,,,,,,,,,,,,,,,,,,,,,,,,,,,,,,,,,,,,,,,,,,,,,,,,,,,,,,,,,,,,,,,,,,,,,592.1273040771484,None,,,,,,,,,,,,,,,,,,,,,,,,,,,,,,,,,,,,,,,,,,,,,,,,,,,,,,,,,8011,001,15,2021_Nov_08_1402,task-switching-replication,2021.2.3,59.99413547622079,
1,20,experiment,15,sitting,switch,congruant,solid,square,yellow,stimuli/solid-rectangle.png,stimuli/yellow-square.png,2,,,,,,,,,,,,,,,,,,,,,,,,,0,0,0,0,0,0,0,0,0,19,19,19,,,,,,,,,,,,,,,,,,,,,,,,,,,,,,,,,,,,,,,,,,,,,,,,,,,,,,,,,,,,,,,1636402193.6313028,,,,,,,,,,594.103385925293,None,,,,,,,,,,,,,,,,,,,,,,,,,,,,,,,,,,,,,,,,,,592.3239901065826,None,593.3137979507446,None,2,1,593.3137979507446,None,0.6867671012878418,,,,,,,8011,001,15,2021_Nov_08_1402,task-switching-replication,2021.2.3,59.99413547622079,
1,21,experiment,15,sitting,switch,incongruant,dashed,square,yellow,stimuli/dashed-rectangle.png,stimuli/yellow-square.png,1,,,,,,,,,,,,,,,,,,,,,,,,,0,0,0,0,0,0,0,0,0,20,20,20,,,,,0,0,0,0,,,,,,,,,,,,,,,,,,,,,,,,,,,,,,,,,,,,,,,,,,,,,,,,,,,,,,,1636402196.3520105,,,,,,,,,,,,596.804834318161,597.8572120666504,596.8363311290741,None,,,,,,,,,,,,,,,,,,,,,,,,,,,,,,,,,,,,,,594.3329699039459,None,595.323000907898,None,None,0,595.323000907898,None,,,,,,,,8011,001,15,2021_Nov_08_1402,task-switching-replication,2021.2.3,59.99413547622079,
1,21,experiment,15,sitting,switch,incongruant,dashed,square,yellow,stimuli/dashed-rectangle.png,stimuli/yellow-square.png,1,,,,,,,,,,,,,,,,,,,,,,,,,0,0,0,0,0,0,0,0,0,20,20,20,,,,,,,,,,,,,,,,,,,,,,,,,,,,,,,,,,,,,,,,,,,,,,,,,,,,,,,,,,,,,,,,,,,,,,,,,601.8328540325165,None,,,,,,,,,,,,,,,,,,,,,,,,,,,,,,,,,,,,,,,,,,,,,,,,,,,,,,,,,8011,001,15,2021_Nov_08_1402,task-switching-replication,2021.2.3,59.99413547622079,
1,22,experiment,15,sitting,noswitch,congruant,dashed,triangle,yellow,stimuli/dashed-rectangle.png,stimuli/yellow-triangle.png,1,,,,,,,,,,,,,,,,,,,,,,,,,0,0,0,0,0,0,0,0,0,21,21,21,,,,,,,,,,,,,,,,,,,,,,,,,,,,,,,,,,,,,,,,,,,,,,,,,,,,,,,,,,,,,,,1636402203.6658895,,,,,,,,,,604.1381320953369,None,,,,,,,,,,,,,,,,,,,,,,,,,,,,,,,,,,,,,,,,,,602.0623390674591,None,603.0522711277008,None,1,1,603.0522711277008,None,0.9789299964904785,,,,,,,8011,001,15,2021_Nov_08_1402,task-switching-replication,2021.2.3,59.99413547622079,
1,23,experiment,15,sitting,noswitch,congruant,dashed,square,yellow,stimuli/dashed-rectangle.png,stimuli/yellow-square.png,1,,,,,,,,,,,,,,,,,,,,,,,,,0,0,0,0,0,0,0,0,0,22,22,22,,,,,0,0,0,0,,,,,,,,,,,,,,,,,,,,,,,,,,,,,,,,,,,,,,,,,,,,,,,,,,,,,,,1636402205.975279,,,,,,,,,,,,606.4189405441284,607.471755027771,606.4513459205627,None,,,,,,,,,,,,,,,,,,,,,,,,,,,,,,,,,,,,,,604.3674240112305,None,605.3572680950165,None,2,0,605.3572680950165,None,0.9355978965759277,,,,,,,8011,001,15,2021_Nov_08_1402,task-switching-replication,2021.2.3,59.99413547622079,
1,23,experiment,15,sitting,noswitch,congruant,dashed,square,yellow,stimuli/dashed-rectangle.png,stimuli/yellow-square.png,1,,,,,,,,,,,,,,,,,,,,,,,,,0,0,0,0,0,0,0,0,0,22,22,22,,,,,,,,,,,,,,,,,,,,,,,,,,,,,,,,,,,,,,,,,,,,,,,,,,,,,,,,,,,,,,,,,,,,,,,,,611.4806520938873,None,,,,,,,,,,,,,,,,,,,,,,,,,,,,,,,,,,,,,,,,,,,,,,,,,,,,,,,,,8011,001,15,2021_Nov_08_1402,task-switching-replication,2021.2.3,59.99413547622079,
1,24,experiment,15,sitting,noswitch,congruant,dashed,triangle,yellow,stimuli/dashed-rectangle.png,stimuli/yellow-triangle.png,1,,,,,,,,,,,,,,,,,,,,,,,,,0,0,0,0,0,0,0,0,0,23,23,23,,,,,0,0,0,0,,,,,,,,,,,,,,,,,,,,,,,,,,,,,,,,,,,,,,,,,,,,,,,,,,,,,,,1636402213.75301,,,,,,,,,,,,614.2077214241028,615.2585289478302,614.2384569644928,None,,,,,,,,,,,,,,,,,,,,,,,,,,,,,,,,,,,,,,611.6773340702057,None,612.6660380363464,None,None,0,612.6660380363464,None,,,,,,,,8011,001,15,2021_Nov_08_1402,task-switching-replication,2021.2.3,59.99413547622079,
1,24,experiment,15,sitting,noswitch,congruant,dashed,triangle,yellow,stimuli/dashed-rectangle.png,stimuli/yellow-triangle.png,1,,,,,,,,,,,,,,,,,,,,,,,,,0,0,0,0,0,0,0,0,0,23,23,23,,,,,,,,,,,,,,,,,,,,,,,,,,,,,,,,,,,,,,,,,,,,,,,,,,,,,,,,,,,,,,,,,,,,,,,,,619.2646749019623,None,,,,,,,,,,,,,,,,,,,,,,,,,,,,,,,,,,,,,,,,,,,,,,,,,,,,,,,,,8011,001,15,2021_Nov_08_1402,task-switching-replication,2021.2.3,59.99413547622079,
1,25,experiment,15,sitting,switch,congruant,solid,triangle,yellow,stimuli/solid-rectangle.png,stimuli/yellow-triangle.png,1,,,,,,,,,,,,,,,,,,,,,,,,,0,0,0,0,0,0,0,0,0,24,24,24,0,0,0,0,,,,,,,,,,,,,,,,,,,,,,,,,,,,,,,,,,,,,,,,,,,,,,,,,,,,,,,,,,,1636402221.539634,,,,,,,,,,,,,,,,621.9925343513489,623.0104539394379,622.0239899158478,None,,,,,,,,,,,,,,,,,,,,,,,,,,,,,,,,,,619.4613609313965,None,620.4509189128876,None,None,0,620.4509189128876,None,,,,,,,,8011,001,15,2021_Nov_08_1402,task-switching-replication,2021.2.3,59.99413547622079,
1,25,experiment,15,sitting,switch,congruant,solid,triangle,yellow,stimuli/solid-rectangle.png,stimuli/yellow-triangle.png,1,,,,,,,,,,,,,,,,,,,,,,,,,0,0,0,0,0,0,0,0,0,24,24,24,,,,,,,,,,,,,,,,,,,,,,,,,,,,,,,,,,,,,,,,,,,,,,,,,,,,,,,,,,,,,,,,,,,,,,,,,627.0520150661469,None,,,,,,,,,,,,,,,,,,,,,,,,,,,,,,,,,,,,,,,,,,,,,,,,,,,,,,,,,8011,001,15,2021_Nov_08_1402,task-switching-replication,2021.2.3,59.99413547622079,
1,26,experiment,15,sitting,switch,incongruant,dashed,triangle,blue,stimuli/dashed-rectangle.png,stimuli/blue-triangle.png,2,,,,,,,,,,,,,,,,,,,,,,,,,0,0,0,0,0,0,0,0,0,25,25,25,,,,,0,0,0,0,,,,,,,,,,,,,,,,,,,,,,,,,,,,,,,,,,,,,,,,,,,,,,,,,,,,,,,1636402229.2677236,,,,,,,,,,,,629.7204994678498,630.7719259262085,629.751876115799,None,,,,,,,,,,,,,,,,,,,,,,,,,,,,,,,,,,,,,,627.2488360404968,None,628.2391309738159,None,None,0,628.2391309738159,None,,,,,,,,8011,001,15,2021_Nov_08_1402,task-switching-replication,2021.2.3,59.99413547622079,
1,26,experiment,15,sitting,switch,incongruant,dashed,triangle,blue,stimuli/dashed-rectangle.png,stimuli/blue-triangle.png,2,,,,,,,,,,,,,,,,,,,,,,,,,0,0,0,0,0,0,0,0,0,25,25,25,,,,,,,,,,,,,,,,,,,,,,,,,,,,,,,,,,,,,,,,,,,,,,,,,,,,,,,,,,,,,,,,,,,,,,,,,634.7785980701447,None,,,,,,,,,,,,,,,,,,,,,,,,,,,,,,,,,,,,,,,,,,,,,,,,,,,,,,,,,8011,001,15,2021_Nov_08_1402,task-switching-replication,2021.2.3,59.99413547622079,
1,27,experiment,15,sitting,switch,congruant,solid,square,yellow,stimuli/solid-rectangle.png,stimuli/yellow-square.png,2,,,,,,,,,,,,,,,,,,,,,,,,,0,0,0,0,0,0,0,0,0,26,26,26,0,0,0,0,,,,,,,,,,,,,,,,,,,,,,,,,,,,,,,,,,,,,,,,,,,,,,,,,,,,,,,,,,,1636402237.0522287,,,,,,,,,,,,,,,,637.5050293922425,638.5564830303192,637.536082983017,None,,,,,,,,,,,,,,,,,,,,,,,,,,,,,,,,,,634.9755110740662,None,635.9650309085846,None,None,0,635.9650309085846,None,,,,,,,,8011,001,15,2021_Nov_08_1402,task-switching-replication,2021.2.3,59.99413547622079,
1,27,experiment,15,sitting,switch,congruant,solid,square,yellow,stimuli/solid-rectangle.png,stimuli/yellow-square.png,2,,,,,,,,,,,,,,,,,,,,,,,,,0,0,0,0,0,0,0,0,0,26,26,26,,,,,,,,,,,,,,,,,,,,,,,,,,,,,,,,,,,,,,,,,,,,,,,,,,,,,,,,,,,,,,,,,,,,,,,,,642.5656630992889,None,,,,,,,,,,,,,,,,,,,,,,,,,,,,,,,,,,,,,,,,,,,,,,,,,,,,,,,,,8011,001,15,2021_Nov_08_1402,task-switching-replication,2021.2.3,59.99413547622079,
1,28,experiment,15,sitting,noswitch,incongruant,solid,triangle,yellow,stimuli/solid-rectangle.png,stimuli/yellow-triangle.png,1,,,,,,,,,,,,,,,,,,,,,,,,,0,0,0,0,0,0,0,0,0,27,27,27,0,0,0,0,,,,,,,,,,,,,,,,,,,,,,,,,,,,,,,,,,,,,,,,,,,,,,,,,,,,,,,,,,,1636402244.781051,,,,,,,,,,,,,,,,645.233899307251,646.2862401008606,645.2660291194916,None,,,,,,,,,,,,,,,,,,,,,,,,,,,,,,,,,,642.7624011039734,None,643.7520790100098,None,None,0,643.7520790100098,None,,,,,,,,8011,001,15,2021_Nov_08_1402,task-switching-replication,2021.2.3,59.99413547622079,
1,28,experiment,15,sitting,noswitch,incongruant,solid,triangle,yellow,stimuli/solid-rectangle.png,stimuli/yellow-triangle.png,1,,,,,,,,,,,,,,,,,,,,,,,,,0,0,0,0,0,0,0,0,0,27,27,27,,,,,,,,,,,,,,,,,,,,,,,,,,,,,,,,,,,,,,,,,,,,,,,,,,,,,,,,,,,,,,,,,,,,,,,,,650.2605090141296,None,,,,,,,,,,,,,,,,,,,,,,,,,,,,,,,,,,,,,,,,,,,,,,,,,,,,,,,,,8011,001,15,2021_Nov_08_1402,task-switching-replication,2021.2.3,59.99413547622079,
1,29,experiment,15,sitting,switch,congruant,dashed,triangle,yellow,stimuli/dashed-rectangle.png,stimuli/yellow-triangle.png,1,,,,,,,,,,,,,,,,,,,,,,,,,0,0,0,0,0,0,0,0,0,28,28,28,,,,,0,0,0,0,,,,,,,,,,,,,,,,,,,,,,,,,,,,,,,,,,,,,,,,,,,,,,,,,,,,,,,1636402252.5655735,,,,,,,,,,,,653.0183774948121,654.0692620277405,653.0497980117798,None,,,,,,,,,,,,,,,,,,,,,,,,,,,,,,,,,,,,,,650.4897780418396,None,651.4786801338196,None,None,0,651.4786801338196,None,,,,,,,,8011,001,15,2021_Nov_08_1402,task-switching-replication,2021.2.3,59.99413547622079,
1,29,experiment,15,sitting,switch,congruant,dashed,triangle,yellow,stimuli/dashed-rectangle.png,stimuli/yellow-triangle.png,1,,,,,,,,,,,,,,,,,,,,,,,,,0,0,0,0,0,0,0,0,0,28,28,28,,,,,,,,,,,,,,,,,,,,,,,,,,,,,,,,,,,,,,,,,,,,,,,,,,,,,,,,,,,,,,,,,,,,,,,,,658.0776920318604,None,,,,,,,,,,,,,,,,,,,,,,,,,,,,,,,,,,,,,,,,,,,,,,,,,,,,,,,,,8011,001,15,2021_Nov_08_1402,task-switching-replication,2021.2.3,59.99413547622079,
1,30,experiment,15,sitting,noswitch,congruant,dashed,triangle,yellow,stimuli/dashed-rectangle.png,stimuli/yellow-triangle.png,1,,,,,,,,,,,,,,,,,,,,,,,,,0,0,0,0,0,0,0,0,0,29,29,29,,,,,0,0,0,0,,,,,,,,,,,,,,,,,,,,,,,,,,,,,,,,,,,,,,,,,,,,,,,,,,,,,,,1636402260.3510528,,,,,,,,,,,,660.8041893959046,661.8554089069366,660.835727930069,None,,,,,,,,,,,,,,,,,,,,,,,,,,,,,,,,,,,,,,658.2743179798126,None,659.2638189792633,None,None,0,659.2638189792633,None,,,,,,,,8011,001,15,2021_Nov_08_1402,task-switching-replication,2021.2.3,59.99413547622079,
1,30,experiment,15,sitting,noswitch,congruant,dashed,triangle,yellow,stimuli/dashed-rectangle.png,stimuli/yellow-triangle.png,1,,,,,,,,,,,,,,,,,,,,,,,,,0,0,0,0,0,0,0,0,0,29,29,29,,,,,,,,,,,,,,,,,,,,,,,,,,,,,,,,,,,,,,,,,,,,,,,,,,,,,,,,,,,,,,,,,,,,,,,,,665.862312078476,None,,,,,,,,,,,,,,,,,,,,,,,,,,,,,,,,,,,,,,,,,,,,,,,,,,,,,,,,,8011,001,15,2021_Nov_08_1402,task-switching-replication,2021.2.3,59.99413547622079,
1,31,experiment,15,sitting,switch,congruant,solid,triangle,blue,stimuli/solid-rectangle.png,stimuli/blue-triangle.png,1,,,,,,,,,,,,,,,,,,,,,,,,,0,0,0,0,0,0,0,0,0,30,30,30,0,0,0,0,,,,,,,,,,,,,,,,,,,,,,,,,,,,,,,,,,,,,,,,,,,,,,,,,,,,,,,,,,,1636402268.135199,,,,,,,,,,,,,,,,668.5879764080048,669.639032125473,668.6188859939575,None,,,,,,,,,,,,,,,,,,,,,,,,,,,,,,,,,,666.0589919090271,None,667.0475070476532,None,None,0,667.0475070476532,None,,,,,,,,8011,001,15,2021_Nov_08_1402,task-switching-replication,2021.2.3,59.99413547622079,
1,31,experiment,15,sitting,switch,congruant,solid,triangle,blue,stimuli/solid-rectangle.png,stimuli/blue-triangle.png,1,,,,,,,,,,,,,,,,,,,,,,,,,0,0,0,0,0,0,0,0,0,30,30,30,,,,,,,,,,,,,,,,,,,,,,,,,,,,,,,,,,,,,,,,,,,,,,,,,,,,,,,,,,,,,,,,,,,,,,,,,673.6471920013428,None,,,,,,,,,,,,,,,,,,,,,,,,,,,,,,,,,,,,,,,,,,,,,,,,,,,,,,,,,8011,001,15,2021_Nov_08_1402,task-switching-replication,2021.2.3,59.99413547622079,
1,32,experiment,15,sitting,noswitch,congruant,solid,triangle,blue,stimuli/solid-rectangle.png,stimuli/blue-triangle.png,1,,,,,,,,,,,,,,,,,,,,,,,,,0,0,0,0,0,0,0,0,0,31,31,31,0,0,0,0,,,,,,,,,,,,,,,,,,,,,,,,,,,,,,,,,,,,,,,,,,,,,,,,,,,,,,,,,,,1636402275.8621087,,,,,,,,,,,,,,,,676.3149175167084,677.3656079769135,676.3459720611572,None,,,,,,,,,,,,,,,,,,,,,,,,,,,,,,,,,,673.8442409038544,None,674.8341989517212,None,None,0,674.8341989517212,None,,,,,,,,8011,001,15,2021_Nov_08_1402,task-switching-replication,2021.2.3,59.99413547622079,
1,32,experiment,15,sitting,noswitch,congruant,solid,triangle,blue,stimuli/solid-rectangle.png,stimuli/blue-triangle.png,1,,,,,,,,,,,,,,,,,,,,,,,,,0,0,0,0,0,0,0,0,0,31,31,31,,,,,,,,,,,,,,,,,,,,,,,,,,,,,,,,,,,,,,,,,,,,,,,,,,,,,,,,,,,,,,,,,,,,,,,,,681.3748679161072,None,,,,,,,,,,,,,,,,,,,,,,,,,,,,,,,,,,,,,,,,,,,,,,,,,,,,,,,,,8011,001,15,2021_Nov_08_1402,task-switching-replication,2021.2.3,59.99413547622079,
1,33,experiment,15,sitting,switch,incongruant,dashed,triangle,blue,stimuli/dashed-rectangle.png,stimuli/blue-triangle.png,2,,,,,,,,,,,,,,,,,,,,,,,,,0,0,0,0,0,0,0,0,0,32,32,32,,,,,0,0,0,0,,,,,,,,,,,,,,,,,,,,,,,,,,,,,,,,,,,,,,,,,,,,,,,,,,,,,,,1636402283.591027,,,,,,,,,,,,684.0439614772797,685.0951869487762,684.0753691196442,None,,,,,,,,,,,,,,,,,,,,,,,,,,,,,,,,,,,,,,681.5718650817871,None,682.5625569820404,None,None,0,682.5625569820404,None,,,,,,,,8011,001,15,2021_Nov_08_1402,task-switching-replication,2021.2.3,59.99413547622079,
1,33,experiment,15,sitting,switch,incongruant,dashed,triangle,blue,stimuli/dashed-rectangle.png,stimuli/blue-triangle.png,2,,,,,,,,,,,,,,,,,,,,,,,,,0,0,0,0,0,0,0,0,0,32,32,32,,,,,,,,,,,,,,,,,,,,,,,,,,,,,,,,,,,,,,,,,,,,,,,,,,,,,,,,,,,,,,,,,,,,,,,,,689.1027219295502,None,,,,,,,,,,,,,,,,,,,,,,,,,,,,,,,,,,,,,,,,,,,,,,,,,,,,,,,,,8011,001,15,2021_Nov_08_1402,task-switching-replication,2021.2.3,59.99413547622079,
1,34,experiment,15,sitting,noswitch,congruant,dashed,triangle,blue,stimuli/dashed-rectangle.png,stimuli/blue-triangle.png,2,,,,,,,,,,,,,,,,,,,,,,,,,0,0,0,0,0,0,0,0,0,33,33,33,,,,,0,0,0,0,,,,,,,,,,,,,,,,,,,,,,,,,,,,,,,,,,,,,,,,,,,,,,,,,,,,,,,1636402291.3758256,,,,,,,,,,,,691.828651380539,692.88130402565,691.8601729869843,None,,,,,,,,,,,,,,,,,,,,,,,,,,,,,,,,,,,,,,689.2996771335602,None,690.2889680862427,None,None,0,690.2889680862427,None,,,,,,,,8011,001,15,2021_Nov_08_1402,task-switching-replication,2021.2.3,59.99413547622079,
1,34,experiment,15,sitting,noswitch,congruant,dashed,triangle,blue,stimuli/dashed-rectangle.png,stimuli/blue-triangle.png,2,,,,,,,,,,,,,,,,,,,,,,,,,0,0,0,0,0,0,0,0,0,33,33,33,,,,,,,,,,,,,,,,,,,,,,,,,,,,,,,,,,,,,,,,,,,,,,,,,,,,,,,,,,,,,,,,,,,,,,,,,696.8895809650421,None,,,,,,,,,,,,,,,,,,,,,,,,,,,,,,,,,,,,,,,,,,,,,,,,,,,,,,,,,8011,001,15,2021_Nov_08_1402,task-switching-replication,2021.2.3,59.99413547622079,
1,35,experiment,15,sitting,switch,congruant,solid,square,blue,stimuli/solid-rectangle.png,stimuli/blue-square.png,2,,,,,,,,,,,,,,,,,,,,,,,,,0,0,0,0,0,0,0,0,0,34,34,34,0,0,0,0,,,,,,,,,,,,,,,,,,,,,,,,,,,,,,,,,,,,,,,,,,,,,,,,,,,,,,,,,,,1636402299.1061609,,,,,,,,,,,,,,,,699.5589773178101,700.611624956131,699.589987039566,None,,,,,,,,,,,,,,,,,,,,,,,,,,,,,,,,,,697.0866420269012,None,698.0768430233002,None,None,0,698.0768430233002,None,,,,,,,,8011,001,15,2021_Nov_08_1402,task-switching-replication,2021.2.3,59.99413547622079,
1,35,experiment,15,sitting,switch,congruant,solid,square,blue,stimuli/solid-rectangle.png,stimuli/blue-square.png,2,,,,,,,,,,,,,,,,,,,,,,,,,0,0,0,0,0,0,0,0,0,34,34,34,,,,,,,,,,,,,,,,,,,,,,,,,,,,,,,,,,,,,,,,,,,,,,,,,,,,,,,,,,,,,,,,,,,,,,,,,704.6192450523376,None,,,,,,,,,,,,,,,,,,,,,,,,,,,,,,,,,,,,,,,,,,,,,,,,,,,,,,,,,8011,001,15,2021_Nov_08_1402,task-switching-replication,2021.2.3,59.99413547622079,
1,36,experiment,15,sitting,noswitch,congruant,solid,square,yellow,stimuli/solid-rectangle.png,stimuli/yellow-square.png,2,,,,,,,,,,,,,,,,,,,,,,,,,0,0,0,0,0,0,0,0,0,35,35,35,0,0,0,0,,,,,,,,,,,,,,,,,,,,,,,,,,,,,,,,,,,,,,,,,,,,,,,,,,,,,,,,,,,1636402306.8326428,,,,,,,,,,,,,,,,707.2854434967041,708.3369979858398,707.3165140151978,None,,,,,,,,,,,,,,,,,,,,,,,,,,,,,,,,,,704.8160579204559,None,705.8049468994141,None,None,0,705.8049468994141,None,,,,,,,,8011,001,15,2021_Nov_08_1402,task-switching-replication,2021.2.3,59.99413547622079,
1,36,experiment,15,sitting,noswitch,congruant,solid,square,yellow,stimuli/solid-rectangle.png,stimuli/yellow-square.png,2,,,,,,,,,,,,,,,,,,,,,,,,,0,0,0,0,0,0,0,0,0,35,35,35,,,,,,,,,,,,,,,,,,,,,,,,,,,,,,,,,,,,,,,,,,,,,,,,,,,,,,,,,,,,,,,,,,,,,,,,,712.3437359333038,None,,,,,,,,,,,,,,,,,,,,,,,,,,,,,,,,,,,,,,,,,,,,,,,,,,,,,,,,,8011,001,15,2021_Nov_08_1402,task-switching-replication,2021.2.3,59.99413547622079,
1,37,experiment,15,sitting,switch,congruant,dashed,square,blue,stimuli/dashed-rectangle.png,stimuli/blue-square.png,2,,,,,,,,,,,,,,,,,,,,,,,,,0,0,0,0,0,0,0,0,0,36,36,36,,,,,0,0,0,0,,,,,,,,,,,,,,,,,,,,,,,,,,,,,,,,,,,,,,,,,,,,,,,,,,,,,,,1636402314.6173348,,,,,,,,,,,,715.070136499405,716.1224739551544,715.1016371250153,None,,,,,,,,,,,,,,,,,,,,,,,,,,,,,,,,,,,,,,712.5419790744781,None,713.5306239128113,None,None,0,713.5306239128113,None,,,,,,,,8011,001,15,2021_Nov_08_1402,task-switching-replication,2021.2.3,59.99413547622079,
1,37,experiment,15,sitting,switch,congruant,dashed,square,blue,stimuli/dashed-rectangle.png,stimuli/blue-square.png,2,,,,,,,,,,,,,,,,,,,,,,,,,0,0,0,0,0,0,0,0,0,36,36,36,,,,,,,,,,,,,,,,,,,,,,,,,,,,,,,,,,,,,,,,,,,,,,,,,,,,,,,,,,,,,,,,,,,,,,,,,720.130490064621,None,,,,,,,,,,,,,,,,,,,,,,,,,,,,,,,,,,,,,,,,,,,,,,,,,,,,,,,,,8011,001,15,2021_Nov_08_1402,task-switching-replication,2021.2.3,59.99413547622079,
1,38,experiment,15,sitting,switch,congruant,solid,square,blue,stimuli/solid-rectangle.png,stimuli/blue-square.png,2,,,,,,,,,,,,,,,,,,,,,,,,,0,0,0,0,0,0,0,0,0,37,37,37,,,,,,,,,,,,,,,,,,,,,,,,,,,,,,,,,,,,,,,,,,,,,,,,,,,,,,,,,,,,,,,1636402321.640043,,,,,,,,,,722.11110496521,None,,,,,,,,,,,,,,,,,,,,,,,,,,,,,,,,,,,,,,,,,,720.3274989128113,None,721.3175830841064,None,2,1,721.3175830841064,None,0.6447780132293701,,,,,,,8011,001,15,2021_Nov_08_1402,task-switching-replication,2021.2.3,59.99413547622079,
1,39,experiment,15,sitting,switch,incongruant,dashed,square,yellow,stimuli/dashed-rectangle.png,stimuli/yellow-square.png,1,,,,,,,,,,,,,,,,,,,,,,,,,0,0,0,0,0,0,0,0,0,38,38,38,,,,,,,,,,,,,,,,,,,,,,,,,,,,,,,,,,,,,,,,,,,,,,,,,,,,,,,,,,,,,,,1636402324.1837044,,,,,,,,,,724.6555519104004,None,,,,,,,,,,,,,,,,,,,,,,,,,,,,,,,,,,,,,,,,,,722.3413910865784,None,723.3325350284576,None,1,1,723.3325350284576,None,1.212352991104126,,,,,,,8011,001,15,2021_Nov_08_1402,task-switching-replication,2021.2.3,59.99413547622079,
1,40,experiment,15,sitting,noswitch,incongruant,dashed,triangle,blue,stimuli/dashed-rectangle.png,stimuli/blue-triangle.png,2,,,,,,,,,,,,,,,,,,,,,,,,,0,0,0,0,0,0,0,0,0,39,39,39,,,,,,,,,,,,,,,,,,,,,,,,,,,,,,,,,,,,,,,,,,,,,,,,,,,,,,,,,,,,,,,1636402326.3692157,,,,,,,,,,726.8406059741974,None,,,,,,,,,,,,,,,,,,,,,,,,,,,,,,,,,,,,,,,,,,724.8850040435791,None,725.8744099140167,None,2,1,725.8744099140167,None,0.8756349086761475,,,,,,,8011,001,15,2021_Nov_08_1402,task-switching-replication,2021.2.3,59.99413547622079,
1,41,experiment,15,sitting,switch,congruant,solid,square,blue,stimuli/solid-rectangle.png,stimuli/blue-square.png,2,,,,,,,,,,,,,,,,,,,,,,,,,0,0,0,0,0,0,0,0,0,40,40,40,,,,,,,,,,,,,,,,,,,,,,,,,,,,,,,,,,,,,,,,,,,,,,,,,,,,,,,,,,,,,,,1636402328.43516,,,,,,,,,,728.9070470333099,None,,,,,,,,,,,,,,,,,,,,,,,,,,,,,,,,,,,,,,,,,,727.0697131156921,None,728.0587661266327,None,2,1,728.0587661266327,None,0.7029628753662109,,,,,,,8011,001,15,2021_Nov_08_1402,task-switching-replication,2021.2.3,59.99413547622079,
1,42,experiment,15,sitting,noswitch,incongruant,solid,triangle,yellow,stimuli/solid-rectangle.png,stimuli/yellow-triangle.png,1,,,,,,,,,,,,,,,,,,,,,,,,,0,0,0,0,0,0,0,0,0,41,41,41,,,,,,,,,,,,,,,,,,,,,,,,,,,,,,,,,,,,,,,,,,,,,,,,,,,,,,,,,,,,,,,1636402330.3855917,,,,,,,,,,730.8565719127655,None,,,,,,,,,,,,,,,,,,,,,,,,,,,,,,,,,,,,,,,,,,729.136048078537,None,730.1266241073608,None,1,1,730.1266241073608,None,0.606328010559082,,,,,,,8011,001,15,2021_Nov_08_1402,task-switching-replication,2021.2.3,59.99413547622079,
1,43,experiment,15,sitting,switch,incongruant,dashed,square,blue,stimuli/dashed-rectangle.png,stimuli/blue-square.png,2,,,,,,,,,,,,,,,,,,,,,,,,,0,0,0,0,0,0,0,0,0,42,42,42,,,,,,,,,,,,,,,,,,,,,,,,,,,,,,,,,,,,,,,,,,,,,,,,,,,,,,,,,,,,,,,1636402332.5121431,,,,,,,,,,732.9836459159851,None,,,,,,,,,,,,,,,,,,,,,,,,,,,,,,,,,,,,,,,,,,731.086156129837,None,732.0760929584503,None,2,1,732.0760929584503,None,0.8145298957824707,,,,,,,8011,001,15,2021_Nov_08_1402,task-switching-replication,2021.2.3,59.99413547622079,
1,44,experiment,15,sitting,switch,congruant,solid,square,blue,stimuli/solid-rectangle.png,stimuli/blue-square.png,2,,,,,,,,,,,,,,,,,,,,,,,,,0,0,0,0,0,0,0,0,0,43,43,43,,,,,,,,,,,,,,,,,,,,,,,,,,,,,,,,,,,,,,,,,,,,,,,,,,,,,,,,,,,,,,,1636402334.3420022,,,,,,,,,,734.8140370845795,None,,,,,,,,,,,,,,,,,,,,,,,,,,,,,,,,,,,,,,,,,,733.2133331298828,None,734.2023060321808,None,2,1,734.2023060321808,None,0.49976205825805664,,,,,,,8011,001,15,2021_Nov_08_1402,task-switching-replication,2021.2.3,59.99413547622079,
1,45,experiment,15,sitting,noswitch,incongruant,solid,triangle,blue,stimuli/solid-rectangle.png,stimuli/blue-triangle.png,1,,,,,,,,,,,,,,,,,,,,,,,,,0,0,0,0,0,0,0,0,0,44,44,44,,,,,,,,,,,,,,,,,,,,,,,,,,,,,,,,,,,,,,,,,,,,,,,,,,,,,,,,,,,,,,,1636402336.1168296,,,,,,,,,,736.5877900123596,None,,,,,,,,,,,,,,,,,,,,,,,,,,,,,,,,,,,,,,,,,,735.043555021286,None,736.0333631038666,None,1,1,736.0333631038666,None,0.4111199378967285,,,,,,,8011,001,15,2021_Nov_08_1402,task-switching-replication,2021.2.3,59.99413547622079,
1,46,experiment,15,sitting,switch,incongruant,dashed,square,blue,stimuli/dashed-rectangle.png,stimuli/blue-square.png,2,,,,,,,,,,,,,,,,,,,,,,,,,0,0,0,0,0,0,0,0,0,45,45,45,,,,,,,,,,,,,,,,,,,,,,,,,,,,,,,,,,,,,,,,,,,,,,,,,,,,,,,,,,,,,,,1636402338.6613495,,,,,,,,,,739.1324961185455,None,,,,,,,,,,,,,,,,,,,,,,,,,,,,,,,,,,,,,,,,,,736.8176190853119,None,737.8072431087494,None,2,1,737.8072431087494,None,1.200469970703125,,,,,,,8011,001,15,2021_Nov_08_1402,task-switching-replication,2021.2.3,59.99413547622079,
1,47,experiment,15,sitting,switch,congruant,solid,square,yellow,stimuli/solid-rectangle.png,stimuli/yellow-square.png,2,,,,,,,,,,,,,,,,,,,,,,,,,0,0,0,0,0,0,0,0,0,46,46,46,,,,,,,,,,,,,,,,,,,,,,,,,,,,,,,,,,,,,,,,,,,,,,,,,,,,,,,,,,,,,,,1636402341.2030787,,,,,,,,,,741.6749160289764,None,,,,,,,,,,,,,,,,,,,,,,,,,,,,,,,,,,,,,,,,,,739.3618009090424,None,740.3514580726624,None,2,1,740.3514580726624,None,1.1892518997192383,,,,,,,8011,001,15,2021_Nov_08_1402,task-switching-replication,2021.2.3,59.99413547622079,
1,48,experiment,15,sitting,switch,incongruant,dashed,triangle,yellow,stimuli/dashed-rectangle.png,stimuli/yellow-triangle.png,1,,,,,,,,,,,,,,,,,,,,,,,,,0,0,0,0,0,0,0,0,0,47,47,47,,,,,,,,,,,,,,,,,,,,,,,,,,,,,,,,,,,,,,,,,,,,,,,,,,,,,,,,,,,,,,,1636402343.2759464,,,,,,,,,,743.7472720146179,None,,,,,,,,,,,,,,,,,,,,,,,,,,,,,,,,,,,,,,,,,,741.9045541286469,None,742.8947660923004,None,1,1,742.8947660923004,None,0.6936838626861572,,,,,,,8011,001,15,2021_Nov_08_1402,task-switching-replication,2021.2.3,59.99413547622079,
1,49,experiment,15,sitting,noswitch,incongruant,dashed,triangle,blue,stimuli/dashed-rectangle.png,stimuli/blue-triangle.png,2,,,,,,,,,,,,,,,,,,,,,,,,,0,0,0,0,0,0,0,0,0,48,48,48,,,,,,,,,,,,,,,,,,,,,,,,,,,,,,,,,,,,,,,,,,,,,,,,,,,,,,,,,,,,,,,1636402345.055345,,,,,,,,,,745.5267000198364,None,,,,,,,,,,,,,,,,,,,,,,,,,,,,,,,,,,,,,,,,,,743.9798939228058,None,744.970048904419,None,2,1,744.970048904419,None,0.41762685775756836,,,,,,,8011,001,15,2021_Nov_08_1402,task-switching-replication,2021.2.3,59.99413547622079,
,,,15,,,,,,,,,,,,,,,,,,,,,,,,,,,,,,,,,,0,0,0,0,0,0,0,0,,,,,,,,,,,,,,,,,,,,,,,,,,,,,,,,,,,,,,,,,,,,,,,,,,,,,,,,,,,,,,,,,,,,,,,,,,,,,,,,,,,,,,,,,,,,,,,,,,,,,,,,,,,,,,,,,,,,,,,,,,,,,,,,,,,,,,,8011,001,15,2021_Nov_08_1402,task-switching-replication,2021.2.3,59.99413547622079,
2,1,experiment,15,sitting,buffer,buffer,dashed,triangle,yellow,stimuli/dashed-rectangle.png,stimuli/yellow-triangle.png,1,,,,,,,,,,,,,,,,,,,,,,,,,0,0,0,0,1,0,1,0,0,0,0,0,,,,,,,,,,,,,,,,,,,,,,,,,,,,,,,,,,,,,,,,,,,,,,,,,,,,,,,,,,,,,,,1636402350.5817554,,,,,,,,,,751.0536930561066,None,,,,,,,,,,,,,,,,,,,,,,,,,,,,,,745.7564690113068,None,2,1.85512113571167,745.7564690113068,None,747.7079389095306,None,2,1.229660987854004,747.7079389095306,None,749.0955691337585,None,750.0859069824219,None,1,1,750.0859069824219,None,0.8538670539855957,,,,,,,8011,001,15,2021_Nov_08_1402,task-switching-replication,2021.2.3,59.99413547622079,
2,2,experiment,15,sitting,noswitch,congruant,dashed,square,yellow,stimuli/dashed-rectangle.png,stimuli/yellow-square.png,1,,,,,,,,,,,,,,,,,,,,,,,,,0,0,0,0,1,0,1,0,0,1,1,1,,,,,0,0,0,0,,,,,,,,,,,,,,,,,,,,,,,,,,,,,,,,,,,,,,,,,,,,,,,,,,,,,,,1636402352.4184415,,,,,,,,,,,,752.8620624542236,753.8798809051514,752.8942630290985,None,,,,,,,,,,,,,,,,,,,,,,,,,,,,,,,,,,,,,,751.2839179039001,None,752.2738139629364,None,2,0,752.2738139629364,None,0.48705196380615234,,,,,,,8011,001,15,2021_Nov_08_1402,task-switching-replication,2021.2.3,59.99413547622079,
2,2,experiment,15,sitting,noswitch,congruant,dashed,square,yellow,stimuli/dashed-rectangle.png,stimuli/yellow-square.png,1,,,,,,,,,,,,,,,,,,,,,,,,,0,0,0,0,1,0,1,0,0,1,1,1,,,,,,,,,,,,,,,,,,,,,,,,,,,,,,,,,,,,,,,,,,,,,,,,,,,,,,,,,,,,,,,,,,,,,,,,,757.8918330669403,None,,,,,,,,,,,,,,,,,,,,,,,,,,,,,,,,,,,,,,,,,,,,,,,,,,,,,,,,,8011,001,15,2021_Nov_08_1402,task-switching-replication,2021.2.3,59.99413547622079,
2,3,experiment,15,sitting,noswitch,incongruant,dashed,square,blue,stimuli/dashed-rectangle.png,stimuli/blue-square.png,2,,,,,,,,,,,,,,,,,,,,,,,,,0,0,0,0,1,0,1,0,0,2,2,2,,,,,,,,,,,,,,,,,,,,,,,,,,,,,,,,,,,,,,,,,,,,,,,,,,,,,,,,,,,,,,,1636402359.488058,,,,,,,,,,759.9597480297089,None,,,,,,,,,,,,,,,,,,,,,,,,,,,,,,,,,,,,,,,,,,758.1212301254272,None,759.1110219955444,None,2,1,759.1110219955444,None,0.720574140548706,,,,,,,8011,001,15,2021_Nov_08_1402,task-switching-replication,2021.2.3,59.99413547622079,
2,4,experiment,15,sitting,switch,congruant,solid,square,yellow,stimuli/solid-rectangle.png,stimuli/yellow-square.png,2,,,,,,,,,,,,,,,,,,,,,,,,,0,0,0,0,1,0,1,0,0,3,3,3,,,,,,,,,,,,,,,,,,,,,,,,,,,,,,,,,,,,,,,,,,,,,,,,,,,,,,,,,,,,,,,1636402361.2578776,,,,,,,,,,761.729532957077,None,,,,,,,,,,,,,,,,,,,,,,,,,,,,,,,,,,,,,,,,,,760.188982963562,None,761.1775290966034,None,2,1,761.1775290966034,None,0.41211581230163574,,,,,,,8011,001,15,2021_Nov_08_1402,task-switching-replication,2021.2.3,59.99413547622079,
2,5,experiment,15,sitting,switch,congruant,dashed,triangle,blue,stimuli/dashed-rectangle.png,stimuli/blue-triangle.png,2,,,,,,,,,,,,,,,,,,,,,,,,,0,0,0,0,1,0,1,0,0,4,4,4,,,,,0,0,0,0,,,,,,,,,,,,,,,,,,,,,,,,,,,,,,,,,,,,,,,,,,,,,,,,,,,,,,,1636402363.0894992,,,,,,,,,,,,763.5330793857574,764.554309129715,763.5660910606384,None,,,,,,,,,,,,,,,,,,,,,,,,,,,,,,,,,,,,,,761.9587709903717,None,762.9488830566406,None,1,0,762.9488830566406,None,0.501039981842041,,,,,,,8011,001,15,2021_Nov_08_1402,task-switching-replication,2021.2.3,59.99413547622079,
2,5,experiment,15,sitting,switch,congruant,dashed,triangle,blue,stimuli/dashed-rectangle.png,stimuli/blue-triangle.png,2,,,,,,,,,,,,,,,,,,,,,,,,,0,0,0,0,1,0,1,0,0,4,4,4,,,,,,,,,,,,,,,,,,,,,,,,,,,,,,,,,,,,,,,,,,,,,,,,,,,,,,,,,,,,,,,,,,,,,,,,,768.5668909549713,None,,,,,,,,,,,,,,,,,,,,,,,,,,,,,,,,,,,,,,,,,,,,,,,,,,,,,,,,,8011,001,15,2021_Nov_08_1402,task-switching-replication,2021.2.3,59.99413547622079,
2,6,experiment,15,sitting,noswitch,incongruant,dashed,square,yellow,stimuli/dashed-rectangle.png,stimuli/yellow-square.png,1,,,,,,,,,,,,,,,,,,,,,,,,,0,0,0,0,1,0,1,0,0,5,5,5,,,,,0,0,0,0,,,,,,,,,,,,,,,,,,,,,,,,,,,,,,,,,,,,,,,,,,,,,,,,,,,,,,,1636402369.9543326,,,,,,,,,,,,770.3978834152222,771.4169170856476,770.4311139583588,None,,,,,,,,,,,,,,,,,,,,,,,,,,,,,,,,,,,,,,768.7641410827637,None,769.7547359466553,None,2,0,769.7547359466553,None,0.5487840175628662,,,,,,,8011,001,15,2021_Nov_08_1402,task-switching-replication,2021.2.3,59.99413547622079,
2,6,experiment,15,sitting,noswitch,incongruant,dashed,square,yellow,stimuli/dashed-rectangle.png,stimuli/yellow-square.png,1,,,,,,,,,,,,,,,,,,,,,,,,,0,0,0,0,1,0,1,0,0,5,5,5,,,,,,,,,,,,,,,,,,,,,,,,,,,,,,,,,,,,,,,,,,,,,,,,,,,,,,,,,,,,,,,,,,,,,,,,,775.4261269569397,None,,,,,,,,,,,,,,,,,,,,,,,,,,,,,,,,,,,,,,,,,,,,,,,,,,,,,,,,,8011,001,15,2021_Nov_08_1402,task-switching-replication,2021.2.3,59.99413547622079,
2,7,experiment,15,sitting,switch,congruant,solid,triangle,yellow,stimuli/solid-rectangle.png,stimuli/yellow-triangle.png,1,,,,,,,,,,,,,,,,,,,,,,,,,0,0,0,0,1,0,1,0,0,6,6,6,,,,,,,,,,,,,,,,,,,,,,,,,,,,,,,,,,,,,,,,,,,,,,,,,,,,,,,,,,,,,,,1636402377.2011764,,,,,,,,,,777.6726129055023,None,,,,,,,,,,,,,,,,,,,,,,,,,,,,,,,,,,,,,,,,,,775.655501127243,None,776.6455509662628,None,1,1,776.6455509662628,None,0.8830711841583252,,,,,,,8011,001,15,2021_Nov_08_1402,task-switching-replication,2021.2.3,59.99413547622079,
2,8,experiment,15,sitting,noswitch,congruant,solid,triangle,yellow,stimuli/solid-rectangle.png,stimuli/yellow-triangle.png,1,,,,,,,,,,,,,,,,,,,,,,,,,0,0,0,0,1,0,1,0,0,7,7,7,,,,,,,,,,,,,,,,,,,,,,,,,,,,,,,,,,,,,,,,,,,,,,,,,,,,,,,,,,,,,,,1636402378.9736574,,,,,,,,,,779.445415019989,None,,,,,,,,,,,,,,,,,,,,,,,,,,,,,,,,,,,,,,,,,,777.9025540351868,None,778.8929479122162,None,1,1,778.8929479122162,None,0.419389009475708,,,,,,,8011,001,15,2021_Nov_08_1402,task-switching-replication,2021.2.3,59.99413547622079,
2,9,experiment,15,sitting,switch,incongruant,dashed,triangle,blue,stimuli/dashed-rectangle.png,stimuli/blue-triangle.png,2,,,,,,,,,,,,,,,,,,,,,,,,,0,0,0,0,1,0,1,0,0,8,8,8,,,,,,,,,,,,,,,,,,,,,,,,,,,,,,,,,,,,,,,,,,,,,,,,,,,,,,,,,,,,,,,1636402381.104452,,,,,,,,,,781.5755040645599,None,,,,,,,,,,,,,,,,,,,,,,,,,,,,,,,,,,,,,,,,,,779.674968957901,None,780.664253950119,None,2,1,780.664253950119,None,0.7871720790863037,,,,,,,8011,001,15,2021_Nov_08_1402,task-switching-replication,2021.2.3,59.99413547622079,
2,10,experiment,15,sitting,switch,congruant,solid,square,blue,stimuli/solid-rectangle.png,stimuli/blue-square.png,2,,,,,,,,,,,,,,,,,,,,,,,,,0,0,0,0,1,0,1,0,0,9,9,9,,,,,,,,,,,,,,,,,,,,,,,,,,,,,,,,,,,,,,,,,,,,,,,,,,,,,,,,,,,,,,,1636402383.1702933,,,,,,,,,,783.6422679424286,None,,,,,,,,,,,,,,,,,,,,,,,,,,,,,,,,,,,,,,,,,,781.8049929141998,None,782.7937541007996,None,2,1,782.7937541007996,None,0.7396700382232666,,,,,,,8011,001,15,2021_Nov_08_1402,task-switching-replication,2021.2.3,59.99413547622079,
2,11,experiment,15,sitting,noswitch,congruant,solid,square,blue,stimuli/solid-rectangle.png,stimuli/blue-square.png,2,,,,,,,,,,,,,,,,,,,,,,,,,0,0,0,0,1,0,1,0,0,10,10,10,,,,,,,,,,,,,,,,,,,,,,,,,,,,,,,,,,,,,,,,,,,,,,,,,,,,,,,,,,,,,,,1636402385.0014274,,,,,,,,,,785.4732019901276,None,,,,,,,,,,,,,,,,,,,,,,,,,,,,,,,,,,,,,,,,,,783.8716089725494,None,784.8613579273224,None,2,1,784.8613579273224,None,0.46202588081359863,,,,,,,8011,001,15,2021_Nov_08_1402,task-switching-replication,2021.2.3,59.99413547622079,
2,12,experiment,15,sitting,switch,incongruant,dashed,square,yellow,stimuli/dashed-rectangle.png,stimuli/yellow-square.png,1,,,,,,,,,,,,,,,,,,,,,,,,,0,0,0,0,1,0,1,0,0,11,11,11,,,,,,,,,,,,,,,,,,,,,,,,,,,,,,,,,,,,,,,,,,,,,,,,,,,,,,,,,,,,,,,1636402387.308266,,,,,,,,,,787.7793579101562,None,,,,,,,,,,,,,,,,,,,,,,,,,,,,,,,,,,,,,,,,,,785.7026851177216,None,786.6928761005402,None,1,1,786.6928761005402,None,0.9426319599151611,,,,,,,8011,001,15,2021_Nov_08_1402,task-switching-replication,2021.2.3,59.99413547622079,
2,13,experiment,15,sitting,noswitch,incongruant,dashed,square,blue,stimuli/dashed-rectangle.png,stimuli/blue-square.png,2,,,,,,,,,,,,,,,,,,,,,,,,,0,0,0,0,1,0,1,0,0,12,12,12,,,,,,,,,,,,,,,,,,,,,,,,,,,,,,,,,,,,,,,,,,,,,,,,,,,,,,,,,,,,,,,1636402389.55385,,,,,,,,,,790.0252220630646,None,,,,,,,,,,,,,,,,,,,,,,,,,,,,,,,,,,,,,,,,,,788.0093460083008,None,788.9998841285706,None,2,1,788.9998841285706,None,0.9171459674835205,,,,,,,8011,001,15,2021_Nov_08_1402,task-switching-replication,2021.2.3,59.99413547622079,
2,14,experiment,15,sitting,switch,congruant,solid,square,blue,stimuli/solid-rectangle.png,stimuli/blue-square.png,2,,,,,,,,,,,,,,,,,,,,,,,,,0,0,0,0,1,0,1,0,0,13,13,13,,,,,,,,,,,,,,,,,,,,,,,,,,,,,,,,,,,,,,,,,,,,,,,,,,,,,,,,,,,,,,,1636402391.5014303,,,,,,,,,,791.9731540679932,None,,,,,,,,,,,,,,,,,,,,,,,,,,,,,,,,,,,,,,,,,,790.2546179294586,None,791.243243932724,None,2,1,791.243243932724,None,0.595116138458252,,,,,,,8011,001,15,2021_Nov_08_1402,task-switching-replication,2021.2.3,59.99413547622079,
2,15,experiment,15,sitting,noswitch,incongruant,solid,triangle,blue,stimuli/solid-rectangle.png,stimuli/blue-triangle.png,1,,,,,,,,,,,,,,,,,,,,,,,,,0,0,0,0,1,0,1,0,0,14,14,14,,,,,,,,,,,,,,,,,,,,,,,,,,,,,,,,,,,,,,,,,,,,,,,,,,,,,,,,,,,,,,,1636402393.5733418,,,,,,,,,,794.0444040298462,None,,,,,,,,,,,,,,,,,,,,,,,,,,,,,,,,,,,,,,,,,,792.2026410102844,None,793.1925890445709,None,1,1,793.1925890445709,None,0.7034668922424316,,,,,,,8011,001,15,2021_Nov_08_1402,task-switching-replication,2021.2.3,59.99413547622079,
2,16,experiment,15,sitting,noswitch,incongruant,solid,square,blue,stimuli/solid-rectangle.png,stimuli/blue-square.png,2,,,,,,,,,,,,,,,,,,,,,,,,,0,0,0,0,1,0,1,0,0,15,15,15,,,,,,,,,,,,,,,,,,,,,,,,,,,,,,,,,,,,,,,,,,,,,,,,,,,,,,,,,,,,,,,1636402395.4664557,,,,,,,,,,795.9375920295715,None,,,,,,,,,,,,,,,,,,,,,,,,,,,,,,,,,,,,,,,,,,794.2744319438934,None,795.2647709846497,None,2,1,795.2647709846497,None,0.5394871234893799,,,,,,,8011,001,15,2021_Nov_08_1402,task-switching-replication,2021.2.3,59.99413547622079,
2,17,experiment,15,sitting,switch,incongruant,dashed,square,yellow,stimuli/dashed-rectangle.png,stimuli/yellow-square.png,1,,,,,,,,,,,,,,,,,,,,,,,,,0,0,0,0,1,0,1,0,0,16,16,16,,,,,0,0,0,0,,,,,,,,,,,,,,,,,,,,,,,,,,,,,,,,,,,,,,,,,,,,,,,,,,,,,,,1636402398.0087488,,,,,,,,,,,,798.452294588089,799.4717841148376,798.4859700202942,None,,,,,,,,,,,,,,,,,,,,,,,,,,,,,,,,,,,,,,796.1679110527039,None,797.1577401161194,None,2,0,797.1577401161194,None,1.179595947265625,,,,,,,8011,001,15,2021_Nov_08_1402,task-switching-replication,2021.2.3,59.99413547622079,
2,17,experiment,15,sitting,switch,incongruant,dashed,square,yellow,stimuli/dashed-rectangle.png,stimuli/yellow-square.png,1,,,,,,,,,,,,,,,,,,,,,,,,,0,0,0,0,1,0,1,0,0,16,16,16,,,,,,,,,,,,,,,,,,,,,,,,,,,,,,,,,,,,,,,,,,,,,,,,,,,,,,,,,,,,,,,,,,,,,,,,,803.4830040931702,None,,,,,,,,,,,,,,,,,,,,,,,,,,,,,,,,,,,,,,,,,,,,,,,,,,,,,,,,,8011,001,15,2021_Nov_08_1402,task-switching-replication,2021.2.3,59.99413547622079,
2,18,experiment,15,sitting,switch,congruant,solid,triangle,blue,stimuli/solid-rectangle.png,stimuli/blue-triangle.png,1,,,,,,,,,,,,,,,,,,,,,,,,,0,0,0,0,1,0,1,0,0,17,17,17,0,0,0,0,,,,,,,,,,,,,,,,,,,,,,,,,,,,,,,,,,,,,,,,,,,,,,,,,,,,,,,,,,,1636402405.1983454,,,,,,,,,,,,,,,,805.641946554184,806.6608519554138,805.6747360229492,None,,,,,,,,,,,,,,,,,,,,,,,,,,,,,,,,,,803.7121629714966,None,804.7028920650482,None,2,0,804.7028920650482,None,0.836406946182251,,,,,,,8011,001,15,2021_Nov_08_1402,task-switching-replication,2021.2.3,59.99413547622079,
2,18,experiment,15,sitting,switch,congruant,solid,triangle,blue,stimuli/solid-rectangle.png,stimuli/blue-triangle.png,1,,,,,,,,,,,,,,,,,,,,,,,,,0,0,0,0,1,0,1,0,0,17,17,17,,,,,,,,,,,,,,,,,,,,,,,,,,,,,,,,,,,,,,,,,,,,,,,,,,,,,,,,,,,,,,,,,,,,,,,,,810.6708629131317,None,,,,,,,,,,,,,,,,,,,,,,,,,,,,,,,,,,,,,,,,,,,,,,,,,,,,,,,,,8011,001,15,2021_Nov_08_1402,task-switching-replication,2021.2.3,59.99413547622079,
2,19,experiment,15,sitting,switch,congruant,dashed,square,yellow,stimuli/dashed-rectangle.png,stimuli/yellow-square.png,1,,,,,,,,,,,,,,,,,,,,,,,,,0,0,0,0,1,0,1,0,0,18,18,18,,,,,,,,,,,,,,,,,,,,,,,,,,,,,,,,,,,,,,,,,,,,,,,,,,,,,,,,,,,,,,,1636402412.745882,,,,,,,,,,813.2169981002808,None,,,,,,,,,,,,,,,,,,,,,,,,,,,,,,,,,,,,,,,,,,810.9002230167389,None,811.8904221057892,None,1,1,811.8904221057892,None,1.1779839992523193,,,,,,,8011,001,15,2021_Nov_08_1402,task-switching-replication,2021.2.3,59.99413547622079,
2,20,experiment,15,sitting,noswitch,congruant,dashed,square,yellow,stimuli/dashed-rectangle.png,stimuli/yellow-square.png,1,,,,,,,,,,,,,,,,,,,,,,,,,0,0,0,0,1,0,1,0,0,19,19,19,,,,,,,,,,,,,,,,,,,,,,,,,,,,,,,,,,,,,,,,,,,,,,,,,,,,,,,,,,,,,,,1636402414.5750775,,,,,,,,,,815.0469720363617,None,,,,,,,,,,,,,,,,,,,,,,,,,,,,,,,,,,,,,,,,,,813.4467010498047,None,814.4355981349945,None,1,1,814.4355981349945,None,0.4976189136505127,,,,,,,8011,001,15,2021_Nov_08_1402,task-switching-replication,2021.2.3,59.99413547622079,
2,21,experiment,15,sitting,noswitch,incongruant,dashed,square,blue,stimuli/dashed-rectangle.png,stimuli/blue-square.png,2,,,,,,,,,,,,,,,,,,,,,,,,,0,0,0,0,1,0,1,0,0,20,20,20,,,,,0,0,0,0,,,,,,,,,,,,,,,,,,,,,,,,,,,,,,,,,,,,,,,,,,,,,,,,,,,,,,,1636402417.2974696,,,,,,,,,,,,817.7502765178681,818.8028779029846,817.7818279266357,None,,,,,,,,,,,,,,,,,,,,,,,,,,,,,,,,,,,,,,815.2776839733124,None,816.2690200805664,None,None,0,816.2690200805664,None,,,,,,,,8011,001,15,2021_Nov_08_1402,task-switching-replication,2021.2.3,59.99413547622079,
2,21,experiment,15,sitting,noswitch,incongruant,dashed,square,blue,stimuli/dashed-rectangle.png,stimuli/blue-square.png,2,,,,,,,,,,,,,,,,,,,,,,,,,0,0,0,0,1,0,1,0,0,20,20,20,,,,,,,,,,,,,,,,,,,,,,,,,,,,,,,,,,,,,,,,,,,,,,,,,,,,,,,,,,,,,,,,,,,,,,,,,822.7790529727936,None,,,,,,,,,,,,,,,,,,,,,,,,,,,,,,,,,,,,,,,,,,,,,,,,,,,,,,,,,8011,001,15,2021_Nov_08_1402,task-switching-replication,2021.2.3,59.99413547622079,
2,22,experiment,15,sitting,switch,incongruant,solid,triangle,blue,stimuli/solid-rectangle.png,stimuli/blue-triangle.png,1,,,,,,,,,,,,,,,,,,,,,,,,,0,0,0,0,1,0,1,0,0,21,21,21,,,,,,,,,,,,,,,,,,,,,,,,,,,,,,,,,,,,,,,,,,,,,,,,,,,,,,,,,,,,,,,1636402424.7899997,,,,,,,,,,825.2614829540253,None,,,,,,,,,,,,,,,,,,,,,,,,,,,,,,,,,,,,,,,,,,823.0087139606476,None,823.9989740848541,None,1,1,823.9989740848541,None,1.1538372039794922,,,,,,,8011,001,15,2021_Nov_08_1402,task-switching-replication,2021.2.3,59.99413547622079,
2,23,experiment,15,sitting,noswitch,congruant,solid,triangle,yellow,stimuli/solid-rectangle.png,stimuli/yellow-triangle.png,1,,,,,,,,,,,,,,,,,,,,,,,,,0,0,0,0,1,0,1,0,0,22,22,22,,,,,,,,,,,,,,,,,,,,,,,,,,,,,,,,,,,,,,,,,,,,,,,,,,,,,,,,,,,,,,,1636402426.7966282,,,,,,,,,,827.2686760425568,None,,,,,,,,,,,,,,,,,,,,,,,,,,,,,,,,,,,,,,,,,,825.4906039237976,None,826.4794809818268,None,1,1,826.4794809818268,None,0.6720590591430664,,,,,,,8011,001,15,2021_Nov_08_1402,task-switching-replication,2021.2.3,59.99413547622079,
2,24,experiment,15,sitting,noswitch,congruant,solid,triangle,blue,stimuli/solid-rectangle.png,stimuli/blue-triangle.png,1,,,,,,,,,,,,,,,,,,,,,,,,,0,0,0,0,1,0,1,0,0,23,23,23,,,,,,,,,,,,,,,,,,,,,,,,,,,,,,,,,,,,,,,,,,,,,,,,,,,,,,,,,,,,,,,1636402428.5669706,,,,,,,,,,829.0386869907379,None,,,,,,,,,,,,,,,,,,,,,,,,,,,,,,,,,,,,,,,,,,827.4977750778198,None,828.4866750240326,None,1,1,828.4866750240326,None,0.408372163772583,,,,,,,8011,001,15,2021_Nov_08_1402,task-switching-replication,2021.2.3,59.99413547622079,
2,25,experiment,15,sitting,noswitch,congruant,solid,triangle,blue,stimuli/solid-rectangle.png,stimuli/blue-triangle.png,1,,,,,,,,,,,,,,,,,,,,,,,,,0,0,0,0,1,0,1,0,0,24,24,24,,,,,,,,,,,,,,,,,,,,,,,,,,,,,,,,,,,,,,,,,,,,,,,,,,,,,,,,,,,,,,,1636402430.4553258,,,,,,,,,,830.9272229671478,None,,,,,,,,,,,,,,,,,,,,,,,,,,,,,,,,,,,,,,,,,,829.2677071094513,None,830.2567629814148,None,1,1,830.2567629814148,None,0.571282148361206,,,,,,,8011,001,15,2021_Nov_08_1402,task-switching-replication,2021.2.3,59.99413547622079,
2,26,experiment,15,sitting,switch,incongruant,dashed,triangle,blue,stimuli/dashed-rectangle.png,stimuli/blue-triangle.png,2,,,,,,,,,,,,,,,,,,,,,,,,,0,0,0,0,1,0,1,0,0,25,25,25,,,,,,,,,,,,,,,,,,,,,,,,,,,,,,,,,,,,,,,,,,,,,,,,,,,,,,,,,,,,,,,1636402432.7004595,,,,,,,,,,833.1723461151123,None,,,,,,,,,,,,,,,,,,,,,,,,,,,,,,,,,,,,,,,,,,831.1568350791931,None,832.145868062973,None,2,1,832.145868062973,None,0.9083619117736816,,,,,,,8011,001,15,2021_Nov_08_1402,task-switching-replication,2021.2.3,59.99413547622079,
2,27,experiment,15,sitting,noswitch,congruant,dashed,square,blue,stimuli/dashed-rectangle.png,stimuli/blue-square.png,2,,,,,,,,,,,,,,,,,,,,,,,,,0,0,0,0,1,0,1,0,0,26,26,26,,,,,,,,,,,,,,,,,,,,,,,,,,,,,,,,,,,,,,,,,,,,,,,,,,,,,,,,,,,,,,,1636402434.5909932,,,,,,,,,,835.0629620552063,None,,,,,,,,,,,,,,,,,,,,,,,,,,,,,,,,,,,,,,,,,,833.401468038559,None,834.3917129039764,None,2,1,834.3917129039764,None,0.5286219120025635,,,,,,,8011,001,15,2021_Nov_08_1402,task-switching-replication,2021.2.3,59.99413547622079,
2,28,experiment,15,sitting,switch,congruant,solid,square,blue,stimuli/solid-rectangle.png,stimuli/blue-square.png,2,,,,,,,,,,,,,,,,,,,,,,,,,0,0,0,0,1,0,1,0,0,27,27,27,,,,,,,,,,,,,,,,,,,,,,,,,,,,,,,,,,,,,,,,,,,,,,,,,,,,,,,,,,,,,,,1636402436.4832342,,,,,,,,,,836.9551780223846,None,,,,,,,,,,,,,,,,,,,,,,,,,,,,,,,,,,,,,,,,,,835.2930889129639,None,836.283744096756,None,2,1,836.283744096756,None,0.5565049648284912,,,,,,,8011,001,15,2021_Nov_08_1402,task-switching-replication,2021.2.3,59.99413547622079,
2,29,experiment,15,sitting,switch,incongruant,dashed,triangle,yellow,stimuli/dashed-rectangle.png,stimuli/yellow-triangle.png,1,,,,,,,,,,,,,,,,,,,,,,,,,0,0,0,0,1,0,1,0,0,28,28,28,,,,,,,,,,,,,,,,,,,,,,,,,,,,,,,,,,,,,,,,,,,,,,,,,,,,,,,,,,,,,,,1636402438.1363535,,,,,,,,,,838.6081809997559,None,,,,,,,,,,,,,,,,,,,,,,,,,,,,,,,,,,,,,,,,,,837.1845390796661,None,838.1744070053101,None,1,1,838.1744070053101,None,0.32961297035217285,,,,,,,8011,001,15,2021_Nov_08_1402,task-switching-replication,2021.2.3,59.99413547622079,
2,30,experiment,15,sitting,noswitch,incongruant,dashed,triangle,blue,stimuli/dashed-rectangle.png,stimuli/blue-triangle.png,2,,,,,,,,,,,,,,,,,,,,,,,,,0,0,0,0,1,0,1,0,0,29,29,29,,,,,0,0,0,0,,,,,,,,,,,,,,,,,,,,,,,,,,,,,,,,,,,,,,,,,,,,,,,,,,,,,,,1636402439.9088342,,,,,,,,,,,,840.3523545265198,841.3720490932465,840.385801076889,None,,,,,,,,,,,,,,,,,,,,,,,,,,,,,,,,,,,,,,838.8379111289978,None,839.8279919624329,None,1,0,839.8279919624329,None,0.42803001403808594,,,,,,,8011,001,15,2021_Nov_08_1402,task-switching-replication,2021.2.3,59.99413547622079,
2,30,experiment,15,sitting,noswitch,incongruant,dashed,triangle,blue,stimuli/dashed-rectangle.png,stimuli/blue-triangle.png,2,,,,,,,,,,,,,,,,,,,,,,,,,0,0,0,0,1,0,1,0,0,29,29,29,,,,,,,,,,,,,,,,,,,,,,,,,,,,,,,,,,,,,,,,,,,,,,,,,,,,,,,,,,,,,,,,,,,,,,,,,845.380518913269,None,,,,,,,,,,,,,,,,,,,,,,,,,,,,,,,,,,,,,,,,,,,,,,,,,,,,,,,,,8011,001,15,2021_Nov_08_1402,task-switching-replication,2021.2.3,59.99413547622079,
2,31,experiment,15,sitting,switch,incongruant,solid,triangle,yellow,stimuli/solid-rectangle.png,stimuli/yellow-triangle.png,1,,,,,,,,,,,,,,,,,,,,,,,,,0,0,0,0,1,0,1,0,0,30,30,30,,,,,,,,,,,,,,,,,,,,,,,,,,,,,,,,,,,,,,,,,,,,,,,,,,,,,,,,,,,,,,,1636402447.1521792,,,,,,,,,,847.624104976654,None,,,,,,,,,,,,,,,,,,,,,,,,,,,,,,,,,,,,,,,,,,845.6095631122589,None,846.5983419418335,None,1,1,846.5983419418335,None,0.9116880893707275,,,,,,,8011,001,15,2021_Nov_08_1402,task-switching-replication,2021.2.3,59.99413547622079,
2,32,experiment,15,sitting,switch,incongruant,dashed,triangle,blue,stimuli/dashed-rectangle.png,stimuli/blue-triangle.png,2,,,,,,,,,,,,,,,,,,,,,,,,,0,0,0,0,1,0,1,0,0,31,31,31,,,,,,,,,,,,,,,,,,,,,,,,,,,,,,,,,,,,,,,,,,,,,,,,,,,,,,,,,,,,,,,1636402449.4614074,,,,,,,,,,849.9324719905853,None,,,,,,,,,,,,,,,,,,,,,,,,,,,,,,,,,,,,,,,,,,847.854346036911,None,848.8446581363678,None,2,1,848.8446581363678,None,0.9584431648254395,,,,,,,8011,001,15,2021_Nov_08_1402,task-switching-replication,2021.2.3,59.99413547622079,
2,33,experiment,15,sitting,noswitch,congruant,dashed,square,blue,stimuli/dashed-rectangle.png,stimuli/blue-square.png,2,,,,,,,,,,,,,,,,,,,,,,,,,0,0,0,0,1,0,1,0,0,32,32,32,,,,,,,,,,,,,,,,,,,,,,,,,,,,,,,,,,,,,,,,,,,,,,,,,,,,,,,,,,,,,,,1636402451.8246856,,,,,,,,,,852.2965769767761,None,,,,,,,,,,,,,,,,,,,,,,,,,,,,,,,,,,,,,,,,,,850.1618020534515,None,851.1514899730682,None,2,1,851.1514899730682,None,1.0246210098266602,,,,,,,8011,001,15,2021_Nov_08_1402,task-switching-replication,2021.2.3,59.99413547622079,
2,34,experiment,15,sitting,noswitch,incongruant,dashed,triangle,yellow,stimuli/dashed-rectangle.png,stimuli/yellow-triangle.png,1,,,,,,,,,,,,,,,,,,,,,,,,,0,0,0,0,1,0,1,0,0,33,33,33,,,,,,,,,,,,,,,,,,,,,,,,,,,,,,,,,,,,,,,,,,,,,,,,,,,,,,,,,,,,,,,1636402453.5414443,,,,,,,,,,854.012533903122,None,,,,,,,,,,,,,,,,,,,,,,,,,,,,,,,,,,,,,,,,,,852.5257539749146,None,853.5156171321869,None,1,1,853.5156171321869,None,0.3482358455657959,,,,,,,8011,001,15,2021_Nov_08_1402,task-switching-replication,2021.2.3,59.99413547622079,
2,35,experiment,15,sitting,noswitch,incongruant,dashed,square,blue,stimuli/dashed-rectangle.png,stimuli/blue-square.png,2,,,,,,,,,,,,,,,,,,,,,,,,,0,0,0,0,1,0,1,0,0,34,34,34,,,,,,,,,,,,,,,,,,,,,,,,,,,,,,,,,,,,,,,,,,,,,,,,,,,,,,,,,,,,,,,1636402455.3202739,,,,,,,,,,855.7912631034851,None,,,,,,,,,,,,,,,,,,,,,,,,,,,,,,,,,,,,,,,,,,854.2423470020294,None,855.2333710193634,None,2,1,855.2333710193634,None,0.4331090450286865,,,,,,,8011,001,15,2021_Nov_08_1402,task-switching-replication,2021.2.3,59.99413547622079,
2,36,experiment,15,sitting,switch,congruant,solid,square,yellow,stimuli/solid-rectangle.png,stimuli/yellow-square.png,2,,,,,,,,,,,,,,,,,,,,,,,,,0,0,0,0,1,0,1,0,0,35,35,35,0,0,0,0,,,,,,,,,,,,,,,,,,,,,,,,,,,,,,,,,,,,,,,,,,,,,,,,,,,,,,,,,,,1636402457.5675526,,,,,,,,,,,,,,,,858.0112125873566,859.0324881076813,858.0431580543518,None,,,,,,,,,,,,,,,,,,,,,,,,,,,,,,,,,,856.0207290649414,None,857.0112550258636,None,1,0,857.0112550258636,None,0.8786001205444336,,,,,,,8011,001,15,2021_Nov_08_1402,task-switching-replication,2021.2.3,59.99413547622079,
2,36,experiment,15,sitting,switch,congruant,solid,square,yellow,stimuli/solid-rectangle.png,stimuli/yellow-square.png,2,,,,,,,,,,,,,,,,,,,,,,,,,0,0,0,0,1,0,1,0,0,35,35,35,,,,,,,,,,,,,,,,,,,,,,,,,,,,,,,,,,,,,,,,,,,,,,,,,,,,,,,,,,,,,,,,,,,,,,,,,863.0451040267944,None,,,,,,,,,,,,,,,,,,,,,,,,,,,,,,,,,,,,,,,,,,,,,,,,,,,,,,,,,8011,001,15,2021_Nov_08_1402,task-switching-replication,2021.2.3,59.99413547622079,
2,37,experiment,15,sitting,switch,incongruant,dashed,triangle,yellow,stimuli/dashed-rectangle.png,stimuli/yellow-triangle.png,1,,,,,,,,,,,,,,,,,,,,,,,,,0,0,0,0,1,0,1,0,0,36,36,36,,,,,,,,,,,,,,,,,,,,,,,,,,,,,,,,,,,,,,,,,,,,,,,,,,,,,,,,,,,,,,,1636402464.549651,,,,,,,,,,865.021861076355,None,,,,,,,,,,,,,,,,,,,,,,,,,,,,,,,,,,,,,,,,,,863.2417669296265,None,864.2319009304047,None,1,1,864.2319009304047,None,0.6847209930419922,,,,,,,8011,001,15,2021_Nov_08_1402,task-switching-replication,2021.2.3,59.99413547622079,
2,38,experiment,15,sitting,switch,incongruant,solid,square,blue,stimuli/solid-rectangle.png,stimuli/blue-square.png,2,,,,,,,,,,,,,,,,,,,,,,,,,0,0,0,0,1,0,1,0,0,37,37,37,,,,,,,,,,,,,,,,,,,,,,,,,,,,,,,,,,,,,,,,,,,,,,,,,,,,,,,,,,,,,,,1636402466.559471,,,,,,,,,,867.0314009189606,None,,,,,,,,,,,,,,,,,,,,,,,,,,,,,,,,,,,,,,,,,,865.2514660358429,None,866.2417941093445,None,2,1,866.2417941093445,None,0.6825759410858154,,,,,,,8011,001,15,2021_Nov_08_1402,task-switching-replication,2021.2.3,59.99413547622079,
2,39,experiment,15,sitting,noswitch,congruant,solid,square,yellow,stimuli/solid-rectangle.png,stimuli/yellow-square.png,2,,,,,,,,,,,,,,,,,,,,,,,,,0,0,0,0,1,0,1,0,0,38,38,38,,,,,,,,,,,,,,,,,,,,,,,,,,,,,,,,,,,,,,,,,,,,,,,,,,,,,,,,,,,,,,,1636402468.8073974,,,,,,,,,,869.2796280384064,None,,,,,,,,,,,,,,,,,,,,,,,,,,,,,,,,,,,,,,,,,,867.2610230445862,None,868.2518911361694,None,2,1,868.2518911361694,None,0.9147558212280273,,,,,,,8011,001,15,2021_Nov_08_1402,task-switching-replication,2021.2.3,59.99413547622079,
2,40,experiment,15,sitting,noswitch,incongruant,solid,triangle,yellow,stimuli/solid-rectangle.png,stimuli/yellow-triangle.png,1,,,,,,,,,,,,,,,,,,,,,,,,,0,0,0,0,1,0,1,0,0,39,39,39,,,,,,,,,,,,,,,,,,,,,,,,,,,,,,,,,,,,,,,,,,,,,,,,,,,,,,,,,,,,,,,1636402471.0547848,,,,,,,,,,871.5259771347046,None,,,,,,,,,,,,,,,,,,,,,,,,,,,,,,,,,,,,,,,,,,869.5089781284332,None,870.4988939762115,None,1,1,870.4988939762115,None,0.8880980014801025,,,,,,,8011,001,15,2021_Nov_08_1402,task-switching-replication,2021.2.3,59.99413547622079,
2,41,experiment,15,sitting,noswitch,incongruant,solid,square,yellow,stimuli/solid-rectangle.png,stimuli/yellow-square.png,2,,,,,,,,,,,,,,,,,,,,,,,,,0,0,0,0,1,0,1,0,0,40,40,40,,,,,,,,,,,,,,,,,,,,,,,,,,,,,,,,,,,,,,,,,,,,,,,,,,,,,,,,,,,,,,,1636402473.4770658,,,,,,,,,,873.9486501216888,None,,,,,,,,,,,,,,,,,,,,,,,,,,,,,,,,,,,,,,,,,,871.7556500434875,None,872.7450909614563,None,2,1,872.7450909614563,None,1.098012924194336,,,,,,,8011,001,15,2021_Nov_08_1402,task-switching-replication,2021.2.3,59.99413547622079,
2,42,experiment,15,sitting,noswitch,congruant,solid,square,yellow,stimuli/solid-rectangle.png,stimuli/yellow-square.png,2,,,,,,,,,,,,,,,,,,,,,,,,,0,0,0,0,1,0,1,0,0,41,41,41,,,,,,,,,,,,,,,,,,,,,,,,,,,,,,,,,,,,,,,,,,,,,,,,,,,,,,,,,,,,,,,1636402475.6637564,,,,,,,,,,876.1355631351471,None,,,,,,,,,,,,,,,,,,,,,,,,,,,,,,,,,,,,,,,,,,874.1784119606018,None,875.1681830883026,None,2,1,875.1681830883026,None,0.8338930606842041,,,,,,,8011,001,15,2021_Nov_08_1402,task-switching-replication,2021.2.3,59.99413547622079,
2,43,experiment,15,sitting,noswitch,incongruant,solid,triangle,yellow,stimuli/solid-rectangle.png,stimuli/yellow-triangle.png,1,,,,,,,,,,,,,,,,,,,,,,,,,0,0,0,0,1,0,1,0,0,42,42,42,,,,,,,,,,,,,,,,,,,,,,,,,,,,,,,,,,,,,,,,,,,,,,,,,,,,,,,,,,,,,,,1636402477.6115413,,,,,,,,,,878.0826890468597,None,,,,,,,,,,,,,,,,,,,,,,,,,,,,,,,,,,,,,,,,,,876.3645570278168,None,877.3532419204712,None,1,1,877.3532419204712,None,0.5808718204498291,,,,,,,8011,001,15,2021_Nov_08_1402,task-switching-replication,2021.2.3,59.99413547622079,
2,44,experiment,15,sitting,switch,congruant,dashed,triangle,yellow,stimuli/dashed-rectangle.png,stimuli/yellow-triangle.png,1,,,,,,,,,,,,,,,,,,,,,,,,,0,0,0,0,1,0,1,0,0,43,43,43,,,,,0,0,0,0,,,,,,,,,,,,,,,,,,,,,,,,,,,,,,,,,,,,,,,,,,,,,,,,,,,,,,,1636402480.3312664,,,,,,,,,,,,880.7841255187989,881.8360600471497,880.8156759738922,None,,,,,,,,,,,,,,,,,,,,,,,,,,,,,,,,,,,,,,878.3121991157532,None,879.3010549545288,None,None,0,879.3010549545288,None,,,,,,,,8011,001,15,2021_Nov_08_1402,task-switching-replication,2021.2.3,59.99413547622079,
2,44,experiment,15,sitting,switch,congruant,dashed,triangle,yellow,stimuli/dashed-rectangle.png,stimuli/yellow-triangle.png,1,,,,,,,,,,,,,,,,,,,,,,,,,0,0,0,0,1,0,1,0,0,43,43,43,,,,,,,,,,,,,,,,,,,,,,,,,,,,,,,,,,,,,,,,,,,,,,,,,,,,,,,,,,,,,,,,,,,,,,,,,885.8121650218964,None,,,,,,,,,,,,,,,,,,,,,,,,,,,,,,,,,,,,,,,,,,,,,,,,,,,,,,,,,8011,001,15,2021_Nov_08_1402,task-switching-replication,2021.2.3,59.99413547622079,
2,45,experiment,15,sitting,noswitch,incongruant,dashed,triangle,blue,stimuli/dashed-rectangle.png,stimuli/blue-triangle.png,2,,,,,,,,,,,,,,,,,,,,,,,,,0,0,0,0,1,0,1,0,0,44,44,44,,,,,0,0,0,0,,,,,,,,,,,,,,,,,,,,,,,,,,,,,,,,,,,,,,,,,,,,,,,,,,,,,,,1636402487.939741,,,,,,,,,,,,888.3833503723145,889.402293920517,888.4165589809418,None,,,,,,,,,,,,,,,,,,,,,,,,,,,,,,,,,,,,,,886.0413739681244,None,887.0301311016083,None,1,0,887.0301311016083,None,1.2728030681610107,,,,,,,8011,001,15,2021_Nov_08_1402,task-switching-replication,2021.2.3,59.99413547622079,
2,45,experiment,15,sitting,noswitch,incongruant,dashed,triangle,blue,stimuli/dashed-rectangle.png,stimuli/blue-triangle.png,2,,,,,,,,,,,,,,,,,,,,,,,,,0,0,0,0,1,0,1,0,0,44,44,44,,,,,,,,,,,,,,,,,,,,,,,,,,,,,,,,,,,,,,,,,,,,,,,,,,,,,,,,,,,,,,,,,,,,,,,,,893.4175100326538,None,,,,,,,,,,,,,,,,,,,,,,,,,,,,,,,,,,,,,,,,,,,,,,,,,,,,,,,,,8011,001,15,2021_Nov_08_1402,task-switching-replication,2021.2.3,59.99413547622079,
2,46,experiment,15,sitting,switch,congruant,solid,square,yellow,stimuli/solid-rectangle.png,stimuli/yellow-square.png,2,,,,,,,,,,,,,,,,,,,,,,,,,0,0,0,0,1,0,1,0,0,45,45,45,0,0,0,0,,,,,,,,,,,,,,,,,,,,,,,,,,,,,,,,,,,,,,,,,,,,,,,,,,,,,,,,,,,1636402495.0987618,,,,,,,,,,,,,,,,895.5423173904419,896.561222076416,895.5748269557953,None,,,,,,,,,,,,,,,,,,,,,,,,,,,,,,,,,,893.6144239902496,None,894.6032540798187,None,1,0,894.6032540798187,None,0.8666560649871826,,,,,,,8011,001,15,2021_Nov_08_1402,task-switching-replication,2021.2.3,59.99413547622079,
2,46,experiment,15,sitting,switch,congruant,solid,square,yellow,stimuli/solid-rectangle.png,stimuli/yellow-square.png,2,,,,,,,,,,,,,,,,,,,,,,,,,0,0,0,0,1,0,1,0,0,45,45,45,,,,,,,,,,,,,,,,,,,,,,,,,,,,,,,,,,,,,,,,,,,,,,,,,,,,,,,,,,,,,,,,,,,,,,,,,900.5711920261383,None,,,,,,,,,,,,,,,,,,,,,,,,,,,,,,,,,,,,,,,,,,,,,,,,,,,,,,,,,8011,001,15,2021_Nov_08_1402,task-switching-replication,2021.2.3,59.99413547622079,
2,47,experiment,15,sitting,switch,incongruant,dashed,triangle,yellow,stimuli/dashed-rectangle.png,stimuli/yellow-triangle.png,1,,,,,,,,,,,,,,,,,,,,,,,,,0,0,0,0,1,0,1,0,0,46,46,46,,,,,,,,,,,,,,,,,,,,,,,,,,,,,,,,,,,,,,,,,,,,,,,,,,,,,,,,,,,,,,,1636402502.167803,,,,,,,,,,902.6398050785065,None,,,,,,,,,,,,,,,,,,,,,,,,,,,,,,,,,,,,,,,,,,900.800498008728,None,901.7899169921875,None,1,1,901.7899169921875,None,0.7567660808563232,,,,,,,8011,001,15,2021_Nov_08_1402,task-switching-replication,2021.2.3,59.99413547622079,
2,48,experiment,15,sitting,switch,congruant,solid,triangle,blue,stimuli/solid-rectangle.png,stimuli/blue-triangle.png,1,,,,,,,,,,,,,,,,,,,,,,,,,0,0,0,0,1,0,1,0,0,47,47,47,0,0,0,0,,,,,,,,,,,,,,,,,,,,,,,,,,,,,,,,,,,,,,,,,,,,,,,,,,,,,,,,,,,1636402504.4766436,,,,,,,,,,,,,,,,904.9202964305878,905.9378559589386,904.9523451328278,None,,,,,,,,,,,,,,,,,,,,,,,,,,,,,,,,,,902.869334936142,None,903.8586699962616,None,2,0,903.8586699962616,None,0.945242166519165,,,,,,,8011,001,15,2021_Nov_08_1402,task-switching-replication,2021.2.3,59.99413547622079,
2,48,experiment,15,sitting,switch,congruant,solid,triangle,blue,stimuli/solid-rectangle.png,stimuli/blue-triangle.png,1,,,,,,,,,,,,,,,,,,,,,,,,,0,0,0,0,1,0,1,0,0,47,47,47,,,,,,,,,,,,,,,,,,,,,,,,,,,,,,,,,,,,,,,,,,,,,,,,,,,,,,,,,,,,,,,,,,,,,,,,,909.9509301185608,None,,,,,,,,,,,,,,,,,,,,,,,,,,,,,,,,,,,,,,,,,,,,,,,,,,,,,,,,,8011,001,15,2021_Nov_08_1402,task-switching-replication,2021.2.3,59.99413547622079,
2,49,experiment,15,sitting,switch,congruant,dashed,triangle,yellow,stimuli/dashed-rectangle.png,stimuli/yellow-triangle.png,1,,,,,,,,,,,,,,,,,,,,,,,,,0,0,0,0,1,0,1,0,0,48,48,48,,,,,,,,,,,,,,,,,,,,,,,,,,,,,,,,,,,,,,,,,,,,,,,,,,,,,,,,,,,,,,,1636402511.2564871,,,,,,,,,,911.7277081012726,None,,,,,,,,,,,,,,,,,,,,,,,,,,,,,,,,,,,,,,,,,,910.1800909042358,None,911.1710660457611,None,1,1,911.1710660457611,None,0.4177439212799072,,,,,,,8011,001,15,2021_Nov_08_1402,task-switching-replication,2021.2.3,59.99413547622079,
,,,15,,,,,,,,,,,,,,,,,,,,,,,,,,,,,,,,,,0,0,0,0,1,0,1,0,,,,,,,,,,,,,,,,,,,,,,,,,,,,,,,,,,,,,,,,,,,,,,,,,,,,,,,,,,,,,,,,,,,,,,,,,,,,,,,,,,,,,,,,,,,,,,,,,,,,,,,,,,,,,,,,,,,,,,,,,,,,,,,,,,,,,,,8011,001,15,2021_Nov_08_1402,task-switching-replication,2021.2.3,59.99413547622079,
3,1,experiment,15,sitting,buffer,buffer,solid,square,blue,stimuli/solid-rectangle.png,stimuli/blue-square.png,2,,,,,,,,,,,,,,,,,,,,,,,,,0,0,0,0,2,0,2,0,0,0,0,0,,,,,,,,,,,,,,,,,,,,,,,,,,,,,,,,,,,,,,,,,,,,,,,,,,,,,,,,,,,,,,,1636402516.225543,,,,,,,,,,916.6980080604553,None,,,,,,,,,,,,,,,,,,,,,,,,,,,,,,911.9579210281372,None,2,1.504364013671875,911.9579210281372,None,913.5413389205933,None,2,1.3833599090576172,913.5413389205933,None,915.0359699726105,None,916.0265021324158,None,2,1,916.0265021324158,None,0.5652079582214355,,,,,,,8011,001,15,2021_Nov_08_1402,task-switching-replication,2021.2.3,59.99413547622079,
3,2,experiment,15,sitting,noswitch,congruant,solid,square,yellow,stimuli/solid-rectangle.png,stimuli/yellow-square.png,2,,,,,,,,,,,,,,,,,,,,,,,,,0,0,0,0,2,0,2,0,0,1,1,1,0,0,0,0,,,,,,,,,,,,,,,,,,,,,,,,,,,,,,,,,,,,,,,,,,,,,,,,,,,,,,,,,,,1636402518.9459665,,,,,,,,,,,,,,,,919.398870420456,920.4223921298981,919.4300220012665,None,,,,,,,,,,,,,,,,,,,,,,,,,,,,,,,,,,916.9275889396667,None,917.9173169136047,None,None,0,917.9173169136047,None,,,,,,,,8011,001,15,2021_Nov_08_1402,task-switching-replication,2021.2.3,59.99413547622079,
3,2,experiment,15,sitting,noswitch,congruant,solid,square,yellow,stimuli/solid-rectangle.png,stimuli/yellow-square.png,2,,,,,,,,,,,,,,,,,,,,,,,,,0,0,0,0,2,0,2,0,0,1,1,1,,,,,,,,,,,,,,,,,,,,,,,,,,,,,,,,,,,,,,,,,,,,,,,,,,,,,,,,,,,,,,,,,,,,,,,,,924.4368250370026,None,,,,,,,,,,,,,,,,,,,,,,,,,,,,,,,,,,,,,,,,,,,,,,,,,,,,,,,,,8011,001,15,2021_Nov_08_1402,task-switching-replication,2021.2.3,59.99413547622079,
3,3,experiment,15,sitting,switch,congruant,dashed,square,blue,stimuli/dashed-rectangle.png,stimuli/blue-square.png,2,,,,,,,,,,,,,,,,,,,,,,,,,0,0,0,0,2,0,2,0,0,2,2,2,,,,,0,0,0,0,,,,,,,,,,,,,,,,,,,,,,,,,,,,,,,,,,,,,,,,,,,,,,,,,,,,,,,1636402526.712122,,,,,,,,,,,,927.1649343490601,928.2163851261139,927.1963620185852,None,,,,,,,,,,,,,,,,,,,,,,,,,,,,,,,,,,,,,,924.6337549686432,None,925.6240301132202,None,None,0,925.6240301132202,None,,,,,,,,8011,001,15,2021_Nov_08_1402,task-switching-replication,2021.2.3,59.99413547622079,
3,3,experiment,15,sitting,switch,congruant,dashed,square,blue,stimuli/dashed-rectangle.png,stimuli/blue-square.png,2,,,,,,,,,,,,,,,,,,,,,,,,,0,0,0,0,2,0,2,0,0,2,2,2,,,,,,,,,,,,,,,,,,,,,,,,,,,,,,,,,,,,,,,,,,,,,,,,,,,,,,,,,,,,,,,,,,,,,,,,,932.1919820308685,None,,,,,,,,,,,,,,,,,,,,,,,,,,,,,,,,,,,,,,,,,,,,,,,,,,,,,,,,,8011,001,15,2021_Nov_08_1402,task-switching-replication,2021.2.3,59.99413547622079,
3,4,experiment,15,sitting,switch,incongruant,solid,triangle,blue,stimuli/solid-rectangle.png,stimuli/blue-triangle.png,1,,,,,,,,,,,,,,,,,,,,,,,,,0,0,0,0,2,0,2,0,0,3,3,3,0,0,0,0,,,,,,,,,,,,,,,,,,,,,,,,,,,,,,,,,,,,,,,,,,,,,,,,,,,,,,,,,,,1636402533.197036,,,,,,,,,,,,,,,,933.6406395435333,934.6600239276886,933.6735200881958,None,,,,,,,,,,,,,,,,,,,,,,,,,,,,,,,,,,932.421471118927,None,933.4127440452576,None,2,0,933.4127440452576,None,0.11399006843566895,,,,,,,8011,001,15,2021_Nov_08_1402,task-switching-replication,2021.2.3,59.99413547622079,
3,4,experiment,15,sitting,switch,incongruant,solid,triangle,blue,stimuli/solid-rectangle.png,stimuli/blue-triangle.png,1,,,,,,,,,,,,,,,,,,,,,,,,,0,0,0,0,2,0,2,0,0,3,3,3,,,,,,,,,,,,,,,,,,,,,,,,,,,,,,,,,,,,,,,,,,,,,,,,,,,,,,,,,,,,,,,,,,,,,,,,,938.678328037262,None,,,,,,,,,,,,,,,,,,,,,,,,,,,,,,,,,,,,,,,,,,,,,,,,,,,,,,,,,8011,001,15,2021_Nov_08_1402,task-switching-replication,2021.2.3,59.99413547622079,
3,5,experiment,15,sitting,switch,incongruant,dashed,square,blue,stimuli/dashed-rectangle.png,stimuli/blue-square.png,2,,,,,,,,,,,,,,,,,,,,,,,,,0,0,0,0,2,0,2,0,0,4,4,4,,,,,,,,,,,,,,,,,,,,,,,,,,,,,,,,,,,,,,,,,,,,,,,,,,,,,,,,,,,,,,,1636402539.7117236,,,,,,,,,,940.183669090271,None,,,,,,,,,,,,,,,,,,,,,,,,,,,,,,,,,,,,,,,,,,938.8756260871887,None,939.8679320812225,None,2,1,939.8679320812225,None,0.22063112258911133,,,,,,,8011,001,15,2021_Nov_08_1402,task-switching-replication,2021.2.3,59.99413547622079,
3,6,experiment,15,sitting,switch,congruant,solid,square,blue,stimuli/solid-rectangle.png,stimuli/blue-square.png,2,,,,,,,,,,,,,,,,,,,,,,,,,0,0,0,0,2,0,2,0,0,5,5,5,,,,,,,,,,,,,,,,,,,,,,,,,,,,,,,,,,,,,,,,,,,,,,,,,,,,,,,,,,,,,,,1636402541.3080842,,,,,,,,,,941.7799689769745,None,,,,,,,,,,,,,,,,,,,,,,,,,,,,,,,,,,,,,,,,,,940.4134340286255,None,941.4047870635986,None,2,1,941.4047870635986,None,0.24980807304382324,,,,,,,8011,001,15,2021_Nov_08_1402,task-switching-replication,2021.2.3,59.99413547622079,
3,7,experiment,15,sitting,switch,congruant,dashed,triangle,blue,stimuli/dashed-rectangle.png,stimuli/blue-triangle.png,2,,,,,,,,,,,,,,,,,,,,,,,,,0,0,0,0,2,0,2,0,0,6,6,6,,,,,,,,,,,,,,,,,,,,,,,,,,,,,,,,,,,,,,,,,,,,,,,,,,,,,,,,,,,,,,,1636402542.844395,,,,,,,,,,943.3163521289825,None,,,,,,,,,,,,,,,,,,,,,,,,,,,,,,,,,,,,,,,,,,942.0099520683289,None,943.0006990432739,None,2,1,943.0006990432739,None,0.17102408409118652,,,,,,,8011,001,15,2021_Nov_08_1402,task-switching-replication,2021.2.3,59.99413547622079,
