blockNum,trialNum,trialType,condition,posture,switchTrialType,congruantTrialType,cueType,shapeType,shapeColor,cueFileName,stimuliFileName,correctAnswer,untimedTrials.thisRepN,untimedTrials.thisTrialN,untimedTrials.thisN,untimedTrials.thisIndex,selectSolid1.thisRepN,selectSolid1.thisTrialN,selectSolid1.thisN,selectSolid1.thisIndex,selectDashed1.thisRepN,selectDashed1.thisTrialN,selectDashed1.thisN,selectDashed1.thisIndex,timedTrials.thisRepN,timedTrials.thisTrialN,timedTrials.thisN,timedTrials.thisIndex,selectSolid2.thisRepN,selectSolid2.thisTrialN,selectSolid2.thisN,selectSolid2.thisIndex,selectDashed2.thisRepN,selectDashed2.thisTrialN,selectDashed2.thisN,selectDashed2.thisIndex,postures.thisRepN,postures.thisTrialN,postures.thisN,postures.thisIndex,blocks.thisRepN,blocks.thisTrialN,blocks.thisN,blocks.thisIndex,trials.thisRepN,trials.thisTrialN,trials.thisN,trials.thisIndex,selectSolid.thisRepN,selectSolid.thisTrialN,selectSolid.thisN,selectSolid.thisIndex,selectDashed.thisRepN,selectDashed.thisTrialN,selectDashed.thisN,selectDashed.thisIndex,text_3.started,text_3.stopped,key_resp_2.keys,key_resp_2.rt,key_resp_2.started,key_resp_2.stopped,image_4.started,image_4.stopped,key_resp_4.keys,key_resp_4.rt,key_resp_4.started,key_resp_4.stopped,image_5.started,image_5.stopped,key_resp_5.keys,key_resp_5.rt,key_resp_5.started,key_resp_5.stopped,image_6.started,image_6.stopped,key_resp_6.keys,key_resp_6.rt,key_resp_6.started,key_resp_6.stopped,image_7.started,image_7.stopped,key_resp_7.keys,key_resp_7.rt,key_resp_7.started,key_resp_7.stopped,image_8.started,image_8.stopped,key_resp_8.keys,key_resp_8.rt,key_resp_8.started,key_resp_8.stopped,image_9.started,image_9.stopped,key_resp_9.keys,key_resp_9.rt,key_resp_9.started,key_resp_9.stopped,image_10.started,image_10.stopped,key_resp_10.keys,key_resp_10.rt,key_resp_10.started,key_resp_10.stopped,image_11.started,image_11.stopped,key_resp_11.keys,key_resp_11.rt,key_resp_11.started,key_resp_11.stopped,utcTime,cue_untimed_image.started,cue_untimed_image.stopped,stimuli_untimed_image.started,stimuli_untimed_image.stopped,untimed_resp.keys,untimed_resp.corr,untimed_resp.rt,untimed_resp.started,untimed_resp.stopped,text_2.started,text_2.stopped,sound_1.started,sound_1.stopped,image_2.started,image_2.stopped,image_12.started,image_12.stopped,key_resp_12.keys,key_resp_12.rt,key_resp_12.started,key_resp_12.stopped,image_13.started,image_13.stopped,key_resp_13.keys,key_resp_13.rt,key_resp_13.started,key_resp_13.stopped,cue_timed_image.started,cue_timed_image.stopped,stimuli_timed_image.started,stimuli_timed_image.stopped,timed_resp.keys,timed_resp.corr,timed_resp.started,timed_resp.stopped,sound_2.started,sound_2.stopped,image_3.started,image_3.stopped,timed_resp.rt,image.started,image.stopped,key_response.keys,key_response.rt,key_response.started,key_response.stopped,text.started,text.stopped,key_resp.keys,key_resp.rt,key_resp.started,key_resp.stopped,cue_image.started,cue_image.stopped,stimuli_image.started,stimuli_image.stopped,exp_resp.keys,exp_resp.corr,exp_resp.started,exp_resp.stopped,exp_resp.rt,text_4.started,text_4.stopped,key_resp_3.keys,key_resp_3.rt,key_resp_3.started,key_resp_3.stopped,participant,session,condition,date,expName,psychopyVersion,frameRate,
,,,16,,,,,,,,,,,,,,,,,,,,,,,,,,,,,,,,,,,,,,,,,,,,,,,,,,,,,,42.33464002609253,None,2,14.186774969100952,42.33464002609253,None,,,,,,,,,,,,,,,,,,,,,,,,,,,,,,,,,,,,,,,,,,,,,,,,,,,,,,,,,,,,,,,,,,,,,,,,,,,,,,,,,,,,,,,,,,,,,,,,,,,,,,,,,,,,,,,,,,,,,8012,001,16,2021_Nov_08_1449,task-switching-replication,2021.2.3,59.99876978535615,
,,,16,,,,,,,,,,,,,,,,,,,,,,,,,,,,,,,,,,,,,,,,,,,,,,,,,,,,,,,,,,,,56.58607292175293,None,2,4.962090969085693,56.58607292175293,None,,,,,,,,,,,,,,,,,,,,,,,,,,,,,,,,,,,,,,,,,,,,,,,,,,,,,,,,,,,,,,,,,,,,,,,,,,,,,,,,,,,,,,,,,,,,,,,,,,,,,,,,,,,,,,,8012,001,16,2021_Nov_08_1449,task-switching-replication,2021.2.3,59.99876978535615,
,,,16,,,,,,,,,,,,,,,,,,,,,,,,,,,,,,,,,,,,,,,,,,,,,,,,,,,,,,,,,,,,,,,,,,61.60354804992676,None,1,10.849658966064453,61.60354804992676,None,,,,,,,,,,,,,,,,,,,,,,,,,,,,,,,,,,,,,,,,,,,,,,,,,,,,,,,,,,,,,,,,,,,,,,,,,,,,,,,,,,,,,,,,,,,,,,,,,,,,,,,,,8012,001,16,2021_Nov_08_1449,task-switching-replication,2021.2.3,59.99876978535615,
,,,16,,,,,,,,,,,,,,,,,,,,,,,,,,,,,,,,,,,,,,,,,,,,,,,,,,,,,,,,,,,,,,,,,,,,,,,,72.5747618675232,None,2,4.610436916351318,72.5747618675232,None,,,,,,,,,,,,,,,,,,,,,,,,,,,,,,,,,,,,,,,,,,,,,,,,,,,,,,,,,,,,,,,,,,,,,,,,,,,,,,,,,,,,,,,,,,,,,,,,,,,8012,001,16,2021_Nov_08_1449,task-switching-replication,2021.2.3,59.99876978535615,
,,,16,,,,,,,,,,,,,,,,,,,,,,,,,,,,,,,,,,,,,,,,,,,,,,,,,,,,,,,,,,,,,,,,,,,,,,,,,,,,,,77.31685304641724,None,2,9.472200870513916,77.31685304641724,None,,,,,,,,,,,,,,,,,,,,,,,,,,,,,,,,,,,,,,,,,,,,,,,,,,,,,,,,,,,,,,,,,,,,,,,,,,,,,,,,,,,,,,,,,,,,,8012,001,16,2021_Nov_08_1449,task-switching-replication,2021.2.3,59.99876978535615,
,,,16,,,,,,,,,,,,,,,,,,,,,,,,,,,,,,,,,,,,,,,,,,,,,,,,,,,,,,,,,,,,,,,,,,,,,,,,,,,,,,,,,,,,86.85652303695679,None,1,9.875221014022827,86.85652303695679,None,,,,,,,,,,,,,,,,,,,,,,,,,,,,,,,,,,,,,,,,,,,,,,,,,,,,,,,,,,,,,,,,,,,,,,,,,,,,,,,,,,,,,,,8012,001,16,2021_Nov_08_1449,task-switching-replication,2021.2.3,59.99876978535615,
,,,16,,,,,,,,,,,,,,,,,,,,,,,,,,,,,,,,,,,,,,,,,,,,,,,,,,,,,,,,,,,,,,,,,,,,,,,,,,,,,,,,,,,,,,,,,,96.82559895515442,None,2,4.5702290534973145,96.82559895515442,None,,,,,,,,,,,,,,,,,,,,,,,,,,,,,,,,,,,,,,,,,,,,,,,,,,,,,,,,,,,,,,,,,,,,,,,,,,,,,,,,,8012,001,16,2021_Nov_08_1449,task-switching-replication,2021.2.3,59.99876978535615,
,,,16,,,,,,,,,,,,,,,,,,,,,,,,,,,,,,,,,,,,,,,,,,,,,,,,,,,,,,,,,,,,,,,,,,,,,,,,,,,,,,,,,,,,,,,,,,,,,,,,101.50235295295715,None,2,0.9906909465789795,101.50235295295715,None,,,,,,,,,,,,,,,,,,,,,,,,,,,,,,,,,,,,,,,,,,,,,,,,,,,,,,,,,,,,,,,,,,,,,,,,,,,8012,001,16,2021_Nov_08_1449,task-switching-replication,2021.2.3,59.99876978535615,
,,,16,,,,,,,,,,,,,,,,,,,,,,,,,,,,,,,,,,,,,,,,,,,,,,,,,,,,,,,,,,,,,,,,,,,,,,,,,,,,,,,,,,,,,,,,,,,,,,,,,,,,,,102.58830308914185,None,1,13.898746013641357,102.58830308914185,None,,,,,,,,,,,,,,,,,,,,,,,,,,,,,,,,,,,,,,,,,,,,,,,,,,,,,,,,,,,,,,,,,,,,,8012,001,16,2021_Nov_08_1449,task-switching-replication,2021.2.3,59.99876978535615,
1,1,untimed,16,sitting,buffer,buffer,solid,triangle,blue,stimuli/solid-rectangle.png,stimuli/blue-triangle.png,2,0,0,0,0,,,,,,,,,,,,,,,,,,,,,,,,,,,,,,,,,,,,,,,,,,,,,,,,,,,,,,,,,,,,,,,,,,,,,,,,,,,,,,,,,,,,,,,,,,,,,,,1636404643.3250794,116.60353493690491,None,117.61024594306946,None,2,1,0.4528529644012451,117.61024594306946,None,118.16808009147644,None,,,,,,,,,,,,,,,,,,,,,,,,,,,,,,,,,,,,,,,,,,,,,,,,,,,,,,,,,8012,001,16,2021_Nov_08_1449,task-switching-replication,2021.2.3,59.99876978535615,
1,2,untimed,16,sitting,switch,incongruant,dashed,triangle,yellow,stimuli/dashed-rectangle.png,stimuli/yellow-triangle.png,1,0,1,1,1,,,,,,,,,,,,,,,,,,,,,,,,,,,,,,,,,,,,,,,,,,,,,,,,,,,,,,,,,,,,,,,,,,,,,,,,,,,,,,,,,,,,,,,,,,,,,,,1636404645.2071273,118.39755988121033,None,119.37050700187683,None,1,1,0.5290601253509521,119.37050700187683,None,120.04926204681396,None,,,,,,,,,,,,,,,,,,,,,,,,,,,,,,,,,,,,,,,,,,,,,,,,,,,,,,,,,8012,001,16,2021_Nov_08_1449,task-switching-replication,2021.2.3,59.99876978535615,
1,3,untimed,16,sitting,noswitch,congruant,dashed,square,yellow,stimuli/dashed-rectangle.png,stimuli/yellow-square.png,1,0,2,2,2,,,,,,,,,,,,,,,,,,,,,,,,,,,,,,,,,,,,,,,,,,,,,,,,,,,,,,,,,,,,,,,,,,,,,,,,,,,,,,,,,,,,,,,,,,,,,,,1636404646.9678164,120.28020405769348,None,121.25296592712402,None,1,1,0.4268319606781006,121.25296592712402,None,121.81061100959778,None,,,,,,,,,,,,,,,,,,,,,,,,,,,,,,,,,,,,,,,,,,,,,,,,,,,,,,,,,8012,001,16,2021_Nov_08_1449,task-switching-replication,2021.2.3,59.99876978535615,
1,4,untimed,16,sitting,switch,congruant,solid,square,blue,stimuli/solid-rectangle.png,stimuli/blue-square.png,1,0,3,3,3,0,0,0,0,,,,,,,,,,,,,,,,,,,,,,,,,,,,,,,,,,,,,,,,,,,,,,,,,,,,,,,,,,,,,,,,,,,,,,,,,,,,,,,,,,,,,,,,,,,1636404649.5094528,122.04068303108215,None,123.01408004760742,None,2,0,1.2070229053497314,123.01408004760742,None,,,124.32388854026794,125.341726064682,124.35611987113953,None,,,,,,,,,,,,,,,,,,,,,,,,,,,,,,,,,,,,,,,,,,,,,,,,,,,,,8012,001,16,2021_Nov_08_1449,task-switching-replication,2021.2.3,59.99876978535615,
1,4,untimed,16,sitting,switch,congruant,solid,square,blue,stimuli/solid-rectangle.png,stimuli/blue-square.png,1,0,3,3,3,,,,,,,,,,,,,,,,,,,,,,,,,,,,,,,,,,,,,,,,,,,,,,,,,,,,,,,,,,,,,,,,,,,,,,,,,,,,,,,,,,,,,,,,,,,,,,,,,,,,,,,,,129.38587498664856,None,,,,,,,,,,,,,,,,,,,,,,,,,,,,,,,,,,,,,,,,,,,,,,,,,,,,,,,,,8012,001,16,2021_Nov_08_1449,task-switching-replication,2021.2.3,59.99876978535615,
1,5,untimed,16,sitting,switch,incongruant,dashed,square,blue,stimuli/dashed-rectangle.png,stimuli/blue-square.png,2,0,4,4,4,,,,,,,,,,,,,,,,,,,,,,,,,,,,,,,,,,,,,,,,,,,,,,,,,,,,,,,,,,,,,,,,,,,,,,,,,,,,,,,,,,,,,,,,,,,,,,,1636404656.6905825,129.58336305618286,None,130.55582094192505,None,2,1,0.8499300479888916,130.55582094192505,None,131.5330240726471,None,,,,,,,,,,,,,,,,,,,,,,,,,,,,,,,,,,,,,,,,,,,,,,,,,,,,,,,,,8012,001,16,2021_Nov_08_1449,task-switching-replication,2021.2.3,59.99876978535615,
1,6,untimed,16,sitting,noswitch,congruant,dashed,square,blue,stimuli/dashed-rectangle.png,stimuli/blue-square.png,2,0,5,5,5,,,,,,,,,,,,,,,,,,,,,,,,,,,,,,,,,,,,,,,,,,,,,,,,,,,,,,,,,,,,,,,,,,,,,,,,,,,,,,,,,,,,,,,,,,,,,,,1636404658.450405,131.7629098892212,None,132.73551988601685,None,2,1,0.424206018447876,132.73551988601685,None,133.29302191734314,None,,,,,,,,,,,,,,,,,,,,,,,,,,,,,,,,,,,,,,,,,,,,,,,,,,,,,,,,,8012,001,16,2021_Nov_08_1449,task-switching-replication,2021.2.3,59.99876978535615,
1,7,untimed,16,sitting,noswitch,incongruant,dashed,square,yellow,stimuli/dashed-rectangle.png,stimuli/yellow-square.png,1,0,6,6,6,,,,,,,,,,,,,,,,,,,,,,,,,,,,,,,,,,,,,,,,,,,,,,,,,,,,,,,,,,,,,,,,,,,,,,,,,,,,,,,,,,,,,,,,,,,,,,,1636404660.1504858,133.5228979587555,None,134.49562287330627,None,1,1,0.4002089500427246,134.49562287330627,None,134.99266409873962,None,,,,,,,,,,,,,,,,,,,,,,,,,,,,,,,,,,,,,,,,,,,,,,,,,,,,,,,,,8012,001,16,2021_Nov_08_1449,task-switching-replication,2021.2.3,59.99876978535615,
1,8,untimed,16,sitting,switch,incongruant,solid,triangle,yellow,stimuli/solid-rectangle.png,stimuli/yellow-triangle.png,2,0,7,7,7,0,0,0,0,,,,,,,,,,,,,,,,,,,,,,,,,,,,,,,,,,,,,,,,,,,,,,,,,,,,,,,,,,,,,,,,,,,,,,,,,,,,,,,,,,,,,,,,,,,1636404662.2079058,135.2217619419098,None,136.1937770843506,None,1,0,0.7148330211639404,136.1937770843506,None,,,137.02231550216675,138.04042291641235,137.0552520751953,None,,,,,,,,,,,,,,,,,,,,,,,,,,,,,,,,,,,,,,,,,,,,,,,,,,,,,8012,001,16,2021_Nov_08_1449,task-switching-replication,2021.2.3,59.99876978535615,
1,8,untimed,16,sitting,switch,incongruant,solid,triangle,yellow,stimuli/solid-rectangle.png,stimuli/yellow-triangle.png,2,0,7,7,7,,,,,,,,,,,,,,,,,,,,,,,,,,,,,,,,,,,,,,,,,,,,,,,,,,,,,,,,,,,,,,,,,,,,,,,,,,,,,,,,,,,,,,,,,,,,,,,,,,,,,,,,,142.08442401885986,None,,,,,,,,,,,,,,,,,,,,,,,,,,,,,,,,,,,,,,,,,,,,,,,,,,,,,,,,,8012,001,16,2021_Nov_08_1449,task-switching-replication,2021.2.3,59.99876978535615,
1,9,untimed,16,sitting,noswitch,incongruant,solid,square,blue,stimuli/solid-rectangle.png,stimuli/blue-square.png,1,0,8,8,8,0,0,0,0,,,,,,,,,,,,,,,,,,,,,,,,,,,,,,,,,,,,,,,,,,,,,,,,,,,,,,,,,,,,,,,,,,,,,,,,,,,,,,,,,,,,,,,,,,,1636404673.7095964,142.28322887420654,None,143.25534796714783,None,2,0,5.177516937255859,143.25534796714783,None,,,148.52401041984558,149.5427529811859,148.55689001083374,None,,,,,,,,,,,,,,,,,,,,,,,,,,,,,,,,,,,,,,,,,,,,,,,,,,,,,8012,001,16,2021_Nov_08_1449,task-switching-replication,2021.2.3,59.99876978535615,
1,9,untimed,16,sitting,noswitch,incongruant,solid,square,blue,stimuli/solid-rectangle.png,stimuli/blue-square.png,1,0,8,8,8,,,,,,,,,,,,,,,,,,,,,,,,,,,,,,,,,,,,,,,,,,,,,,,,,,,,,,,,,,,,,,,,,,,,,,,,,,,,,,,,,,,,,,,,,,,,,,,,,,,,,,,,,153.58578991889954,None,,,,,,,,,,,,,,,,,,,,,,,,,,,,,,,,,,,,,,,,,,,,,,,,,,,,,,,,,8012,001,16,2021_Nov_08_1449,task-switching-replication,2021.2.3,59.99876978535615,
1,10,untimed,16,sitting,noswitch,congruant,solid,square,yellow,stimuli/solid-rectangle.png,stimuli/yellow-square.png,1,0,9,9,9,,,,,,,,,,,,,,,,,,,,,,,,,,,,,,,,,,,,,,,,,,,,,,,,,,,,,,,,,,,,,,,,,,,,,,,,,,,,,,,,,,,,,,,,,,,,,,,1636404681.0724196,153.78314995765686,None,154.75515604019165,None,1,1,1.0344350337982178,154.75515604019165,None,155.91449999809265,None,,,,,,,,,,,,,,,,,,,,,,,,,,,,,,,,,,,,,,,,,,,,,,,,,,,,,,,,,8012,001,16,2021_Nov_08_1449,task-switching-replication,2021.2.3,59.99876978535615,
1,11,untimed,16,sitting,noswitch,congruant,solid,square,yellow,stimuli/solid-rectangle.png,stimuli/yellow-square.png,1,0,10,10,10,,,,,,,,,,,,,,,,,,,,,,,,,,,,,,,,,,,,,,,,,,,,,,,,,,,,,,,,,,,,,,,,,,,,,,,,,,,,,,,,,,,,,,,,,,,,,,,1636404682.8306665,156.14425587654114,None,157.115877866745,None,1,1,0.40770983695983887,157.115877866745,None,157.6732370853424,None,,,,,,,,,,,,,,,,,,,,,,,,,,,,,,,,,,,,,,,,,,,,,,,,,,,,,,,,,8012,001,16,2021_Nov_08_1449,task-switching-replication,2021.2.3,59.99876978535615,
1,12,untimed,16,sitting,switch,incongruant,dashed,triangle,blue,stimuli/dashed-rectangle.png,stimuli/blue-triangle.png,2,0,11,11,11,,,,,,,,,,,,,,,,,,,,,,,,,,,,,,,,,,,,,,,,,,,,,,,,,,,,,,,,,,,,,,,,,,,,,,,,,,,,,,,,,,,,,,,,,,,,,,,1636404684.9502223,157.9029369354248,None,158.87600088119507,None,2,1,0.8211088180541992,158.87600088119507,None,159.7926890850067,None,,,,,,,,,,,,,,,,,,,,,,,,,,,,,,,,,,,,,,,,,,,,,,,,,,,,,,,,,8012,001,16,2021_Nov_08_1449,task-switching-replication,2021.2.3,59.99876978535615,
,,,16,,,,,,,,,,,,,,,,,,,,,,,,,,,,,,,,,,,,,,,,,,,,,,,,,,,,,,,,,,,,,,,,,,,,,,,,,,,,,,,,,,,,,,,,,,,,,,,,,,,,,,,,,,,,,,,,,,,,,,,,,,,,160.02231693267822,None,2,17.260329961776733,160.02231693267822,None,,,,,,,,,,,,,,,,,,,,,,,,,,,,,,,,,,,,,,,,,,,,,,,8012,001,16,2021_Nov_08_1449,task-switching-replication,2021.2.3,59.99876978535615,
,,,16,,,,,,,,,,,,,,,,,,,,,,,,,,,,,,,,,,,,,,,,,,,,,,,,,,,,,,,,,,,,,,,,,,,,,,,,,,,,,,,,,,,,,,,,,,,,,,,,,,,,,,,,,,,,,,,,,,,,,,,,,,,,,,,,,,177.40696597099304,None,2,0.6575319766998291,177.40696597099304,None,,,,,,,,,,,,,,,,,,,,,,,,,,,,,,,,,,,,,,,,,8012,001,16,2021_Nov_08_1449,task-switching-replication,2021.2.3,59.99876978535615,
1,1,timed,16,sitting,buffer,buffer,dashed,square,blue,stimuli/dashed-rectangle.png,stimuli/blue-square.png,2,,,,,,,,,,,,,0,0,0,0,,,,,0,0,0,0,,,,,,,,,,,,,,,,,,,,,,,,,,,,,,,,,,,,,,,,,,,,,,,,,,,,,,,,,,,,,,,,,,,,,,,,,,,1636404705.933543,,,,,,,,,,,,,,,,,,,,,,,,,,,,178.22623205184937,None,179.21664786338806,None,None,0,179.21664786338806,None,180.75709137916567,181.77476286888123,180.7892050743103,None,,,,,,,,,,,,,,,,,,,,,,,,,,,,,8012,001,16,2021_Nov_08_1449,task-switching-replication,2021.2.3,59.99876978535615,
1,1,timed,16,sitting,buffer,buffer,dashed,square,blue,stimuli/dashed-rectangle.png,stimuli/blue-square.png,2,,,,,,,,,,,,,0,0,0,0,,,,,,,,,,,,,,,,,,,,,,,,,,,,,,,,,,,,,,,,,,,,,,,,,,,,,,,,,,,,,,,,,,,,,,,,,,,,,,,,,,,,,,,,,,,,,185.78480100631714,None,,,,,,,,,,,,,,,,,,,,,,,,,,,,,,,,,,,,,,,,,,,,,,,,,,,,,,,,,8012,001,16,2021_Nov_08_1449,task-switching-replication,2021.2.3,59.99876978535615,
1,2,timed,16,sitting,switch,congruant,solid,triangle,yellow,stimuli/solid-rectangle.png,stimuli/yellow-triangle.png,2,,,,,,,,,,,,,0,1,1,1,,,,,,,,,,,,,,,,,,,,,,,,,,,,,,,,,,,,,,,,,,,,,,,,,,,,,,,,,,,,,,,,,,,,,,,,,,,,,,,,,,,1636404713.306897,,,,,,,,,,188.1494059562683,None,,,,,,,,,,,,,,,,,186.0138680934906,None,187.00432801246643,None,2,1,187.00432801246643,None,,,,,1.0261499881744385,,,,,,,,,,,,,,,,,,,,,,,,,,,,8012,001,16,2021_Nov_08_1449,task-switching-replication,2021.2.3,59.99876978535615,
1,3,timed,16,sitting,noswitch,congruant,solid,triangle,blue,stimuli/solid-rectangle.png,stimuli/blue-triangle.png,2,,,,,,,,,,,,,0,2,2,2,,,,,,,,,,,,,,,,,,,,,,,,,,,,,,,,,,,,,,,,,,,,,,,,,,,,,,,,,,,,,,,,,,,,,,,,,,,,,,,,,,,1636404715.0777984,,,,,,,,,,189.9203360080719,None,,,,,,,,,,,,,,,,,188.37894105911255,None,189.368479013443,None,2,1,189.368479013443,None,,,,,0.4469740390777588,,,,,,,,,,,,,,,,,,,,,,,,,,,,8012,001,16,2021_Nov_08_1449,task-switching-replication,2021.2.3,59.99876978535615,
1,4,timed,16,sitting,switch,congruant,dashed,square,blue,stimuli/dashed-rectangle.png,stimuli/blue-square.png,2,,,,,,,,,,,,,0,3,3,3,,,,,0,0,0,0,,,,,,,,,,,,,,,,,,,,,,,,,,,,,,,,,,,,,,,,,,,,,,,,,,,,,,,,,,,,,,,,,,,,,,,,,,,1636404716.9717755,,,,,,,,,,,,,,,,,,,,,,,,,,,,190.14928197860718,None,191.13832807540894,None,1,0,191.13832807540894,None,191.78618955612183,192.80538487434387,191.81862998008728,None,0.5503189563751221,,,,,,,,,,,,,,,,,,,,,,,,,,,,8012,001,16,2021_Nov_08_1449,task-switching-replication,2021.2.3,59.99876978535615,
1,4,timed,16,sitting,switch,congruant,dashed,square,blue,stimuli/dashed-rectangle.png,stimuli/blue-square.png,2,,,,,,,,,,,,,0,3,3,3,,,,,,,,,,,,,,,,,,,,,,,,,,,,,,,,,,,,,,,,,,,,,,,,,,,,,,,,,,,,,,,,,,,,,,,,,,,,,,,,,,,,,,,,,,,,,196.8144609928131,None,,,,,,,,,,,,,,,,,,,,,,,,,,,,,,,,,,,,,,,,,,,,,,,,,,,,,,,,,8012,001,16,2021_Nov_08_1449,task-switching-replication,2021.2.3,59.99876978535615,
1,5,timed,16,sitting,switch,congruant,solid,triangle,blue,stimuli/solid-rectangle.png,stimuli/blue-triangle.png,2,,,,,,,,,,,,,0,4,4,4,0,0,0,0,,,,,,,,,,,,,,,,,,,,,,,,,,,,,,,,,,,,,,,,,,,,,,,,,,,,,,,,,,,,,,,,,,,,,,,,,,,,,,,1636404724.6921747,,,,,,,,,,,,199.51942429542544,200.53714609146118,199.5499300956726,None,,,,,,,,,,,,,197.04386401176453,None,198.03358101844788,None,None,0,198.03358101844788,None,,,,,,,,,,,,,,,,,,,,,,,,,,,,,,,,,8012,001,16,2021_Nov_08_1449,task-switching-replication,2021.2.3,59.99876978535615,
1,5,timed,16,sitting,switch,congruant,solid,triangle,blue,stimuli/solid-rectangle.png,stimuli/blue-triangle.png,2,,,,,,,,,,,,,0,4,4,4,,,,,,,,,,,,,,,,,,,,,,,,,,,,,,,,,,,,,,,,,,,,,,,,,,,,,,,,,,,,,,,,,,,,,,,,,,,,,,,,,,,,,,,,,,,,,204.5502209663391,None,,,,,,,,,,,,,,,,,,,,,,,,,,,,,,,,,,,,,,,,,,,,,,,,,,,,,,,,,8012,001,16,2021_Nov_08_1449,task-switching-replication,2021.2.3,59.99876978535615,
1,6,timed,16,sitting,noswitch,incongruant,solid,square,yellow,stimuli/solid-rectangle.png,stimuli/yellow-square.png,1,,,,,,,,,,,,,0,5,5,5,,,,,,,,,,,,,,,,,,,,,,,,,,,,,,,,,,,,,,,,,,,,,,,,,,,,,,,,,,,,,,,,,,,,,,,,,,,,,,,,,,,1636404731.5659103,,,,,,,,,,206.40843105316162,None,,,,,,,,,,,,,,,,,204.74759697914124,None,205.73779296875,None,1,1,205.73779296875,None,,,,,0.5612521171569824,,,,,,,,,,,,,,,,,,,,,,,,,,,,8012,001,16,2021_Nov_08_1449,task-switching-replication,2021.2.3,59.99876978535615,
1,7,timed,16,sitting,noswitch,incongruant,solid,triangle,yellow,stimuli/solid-rectangle.png,stimuli/yellow-triangle.png,2,,,,,,,,,,,,,0,6,6,6,,,,,,,,,,,,,,,,,,,,,,,,,,,,,,,,,,,,,,,,,,,,,,,,,,,,,,,,,,,,,,,,,,,,,,,,,,,,,,,,,,,1636404733.3962884,,,,,,,,,,208.2383189201355,None,,,,,,,,,,,,,,,,,206.63767099380493,None,207.62738299369812,None,2,1,207.62738299369812,None,,,,,0.5148730278015137,,,,,,,,,,,,,,,,,,,,,,,,,,,,8012,001,16,2021_Nov_08_1449,task-switching-replication,2021.2.3,59.99876978535615,
1,8,timed,16,sitting,noswitch,congruant,solid,triangle,blue,stimuli/solid-rectangle.png,stimuli/blue-triangle.png,2,,,,,,,,,,,,,0,7,7,7,,,,,,,,,,,,,,,,,,,,,,,,,,,,,,,,,,,,,,,,,,,,,,,,,,,,,,,,,,,,,,,,,,,,,,,,,,,,,,,,,,,1636404735.9396439,,,,,,,,,,210.78235292434692,None,,,,,,,,,,,,,,,,,208.4680678844452,None,209.45754289627075,None,2,1,209.45754289627075,None,,,,,1.223902940750122,,,,,,,,,,,,,,,,,,,,,,,,,,,,8012,001,16,2021_Nov_08_1449,task-switching-replication,2021.2.3,59.99876978535615,
1,9,timed,16,sitting,noswitch,incongruant,solid,square,blue,stimuli/solid-rectangle.png,stimuli/blue-square.png,1,,,,,,,,,,,,,0,8,8,8,,,,,,,,,,,,,,,,,,,,,,,,,,,,,,,,,,,,,,,,,,,,,,,,,,,,,,,,,,,,,,,,,,,,,,,,,,,,,,,,,,,1636404737.8343701,,,,,,,,,,212.67629408836365,None,,,,,,,,,,,,,,,,,211.01142191886902,None,212.00107502937317,None,1,1,212.00107502937317,None,,,,,0.5264339447021484,,,,,,,,,,,,,,,,,,,,,,,,,,,,8012,001,16,2021_Nov_08_1449,task-switching-replication,2021.2.3,59.99876978535615,
1,10,timed,16,sitting,noswitch,congruant,solid,square,yellow,stimuli/solid-rectangle.png,stimuli/yellow-square.png,1,,,,,,,,,,,,,0,9,9,9,,,,,,,,,,,,,,,,,,,,,,,,,,,,,,,,,,,,,,,,,,,,,,,,,,,,,,,,,,,,,,,,,,,,,,,,,,,,,,,,,,,1636404739.6053145,,,,,,,,,,214.4479079246521,None,,,,,,,,,,,,,,,,,212.90572786331177,None,213.89535403251648,None,1,1,213.89535403251648,None,,,,,0.42098093032836914,,,,,,,,,,,,,,,,,,,,,,,,,,,,8012,001,16,2021_Nov_08_1449,task-switching-replication,2021.2.3,59.99876978535615,
1,11,timed,16,sitting,switch,congruant,dashed,triangle,yellow,stimuli/dashed-rectangle.png,stimuli/yellow-triangle.png,1,,,,,,,,,,,,,0,10,10,10,,,,,0,0,0,0,,,,,,,,,,,,,,,,,,,,,,,,,,,,,,,,,,,,,,,,,,,,,,,,,,,,,,,,,,,,,,,,,,,,,,,,,,,1636404742.3248813,,,,,,,,,,,,,,,,,,,,,,,,,,,,214.67700004577637,None,215.6661078929901,None,None,0,215.6661078929901,None,217.14847645759585,218.16644501686096,217.17997002601624,None,,,,,,,,,,,,,,,,,,,,,,,,,,,,,8012,001,16,2021_Nov_08_1449,task-switching-replication,2021.2.3,59.99876978535615,
1,11,timed,16,sitting,switch,congruant,dashed,triangle,yellow,stimuli/dashed-rectangle.png,stimuli/yellow-triangle.png,1,,,,,,,,,,,,,0,10,10,10,,,,,,,,,,,,,,,,,,,,,,,,,,,,,,,,,,,,,,,,,,,,,,,,,,,,,,,,,,,,,,,,,,,,,,,,,,,,,,,,,,,,,,,,,,,,,222.20849108695984,None,,,,,,,,,,,,,,,,,,,,,,,,,,,,,,,,,,,,,,,,,,,,,,,,,,,,,,,,,8012,001,16,2021_Nov_08_1449,task-switching-replication,2021.2.3,59.99876978535615,
1,12,timed,16,sitting,noswitch,incongruant,dashed,triangle,blue,stimuli/dashed-rectangle.png,stimuli/blue-triangle.png,2,,,,,,,,,,,,,0,11,11,11,,,,,,,,,,,,,,,,,,,,,,,,,,,,,,,,,,,,,,,,,,,,,,,,,,,,,,,,,,,,,,,,,,,,,,,,,,,,,,,,,,,1636404749.1033723,,,,,,,,,,223.9461579322815,None,,,,,,,,,,,,,,,,,222.4054250717163,None,223.39389491081238,None,2,1,223.39389491081238,None,,,,,0.45853710174560547,,,,,,,,,,,,,,,,,,,,,,,,,,,,8012,001,16,2021_Nov_08_1449,task-switching-replication,2021.2.3,59.99876978535615,
1,13,timed,16,sitting,noswitch,incongruant,dashed,triangle,yellow,stimuli/dashed-rectangle.png,stimuli/yellow-triangle.png,1,,,,,,,,,,,,,0,12,12,12,,,,,,,,,,,,,,,,,,,,,,,,,,,,,,,,,,,,,,,,,,,,,,,,,,,,,,,,,,,,,,,,,,,,,,,,,,,,,,,,,,,1636404750.9368072,,,,,,,,,,225.77893710136414,None,,,,,,,,,,,,,,,,,224.17553806304932,None,225.1656529903412,None,1,1,225.1656529903412,None,,,,,0.4692409038543701,,,,,,,,,,,,,,,,,,,,,,,,,,,,8012,001,16,2021_Nov_08_1449,task-switching-replication,2021.2.3,59.99876978535615,
1,14,timed,16,sitting,noswitch,congruant,dashed,square,yellow,stimuli/dashed-rectangle.png,stimuli/yellow-square.png,1,,,,,,,,,,,,,0,13,13,13,,,,,,,,,,,,,,,,,,,,,,,,,,,,,,,,,,,,,,,,,,,,,,,,,,,,,,,,,,,,,,,,,,,,,,,,,,,,,,,,,,,1636404752.8271499,,,,,,,,,,227.66980290412903,None,,,,,,,,,,,,,,,,,226.00846409797668,None,226.9987530708313,None,1,1,226.9987530708313,None,,,,,0.5574779510498047,,,,,,,,,,,,,,,,,,,,,,,,,,,,8012,001,16,2021_Nov_08_1449,task-switching-replication,2021.2.3,59.99876978535615,
1,15,timed,16,sitting,noswitch,incongruant,dashed,square,blue,stimuli/dashed-rectangle.png,stimuli/blue-square.png,2,,,,,,,,,,,,,0,14,14,14,,,,,,,,,,,,,,,,,,,,,,,,,,,,,,,,,,,,,,,,,,,,,,,,,,,,,,,,,,,,,,,,,,,,,,,,,,,,,,,,,,,1636404754.5982156,,,,,,,,,,229.4401500225067,None,,,,,,,,,,,,,,,,,227.89906287193298,None,228.8879749774933,None,2,1,228.8879749774933,None,,,,,0.41329097747802734,,,,,,,,,,,,,,,,,,,,,,,,,,,,8012,001,16,2021_Nov_08_1449,task-switching-replication,2021.2.3,59.99876978535615,
1,16,timed,16,sitting,noswitch,congruant,dashed,triangle,blue,stimuli/dashed-rectangle.png,stimuli/blue-triangle.png,2,,,,,,,,,,,,,0,15,15,15,,,,,,,,,,,,,,,,,,,,,,,,,,,,,,,,,,,,,,,,,,,,,,,,,,,,,,,,,,,,,,,,,,,,,,,,,,,,,,,,,,,1636404756.5462863,,,,,,,,,,231.38896489143372,None,,,,,,,,,,,,,,,,,229.66992497444153,None,230.6589720249176,None,2,1,230.6589720249176,None,,,,,0.6343710422515869,,,,,,,,,,,,,,,,,,,,,,,,,,,,8012,001,16,2021_Nov_08_1449,task-switching-replication,2021.2.3,59.99876978535615,
1,17,timed,16,sitting,noswitch,incongruant,dashed,triangle,yellow,stimuli/dashed-rectangle.png,stimuli/yellow-triangle.png,1,,,,,,,,,,,,,0,16,16,16,,,,,,,,,,,,,,,,,,,,,,,,,,,,,,,,,,,,,,,,,,,,,,,,,,,,,,,,,,,,,,,,,,,,,,,,,,,,,,,,,,,1636404758.3760207,,,,,,,,,,233.21798586845398,None,,,,,,,,,,,,,,,,,231.6178970336914,None,232.60741209983826,None,1,1,232.60741209983826,None,,,,,0.5077238082885742,,,,,,,,,,,,,,,,,,,,,,,,,,,,8012,001,16,2021_Nov_08_1449,task-switching-replication,2021.2.3,59.99876978535615,
1,18,timed,16,sitting,noswitch,incongruant,dashed,triangle,blue,stimuli/dashed-rectangle.png,stimuli/blue-triangle.png,2,,,,,,,,,,,,,0,17,17,17,,,,,,,,,,,,,,,,,,,,,,,,,,,,,,,,,,,,,,,,,,,,,,,,,,,,,,,,,,,,,,,,,,,,,,,,,,,,,,,,,,,1636404760.1480827,,,,,,,,,,234.98997592926025,None,,,,,,,,,,,,,,,,,233.44695901870728,None,234.43583488464355,None,2,1,234.43583488464355,None,,,,,0.4203970432281494,,,,,,,,,,,,,,,,,,,,,,,,,,,,8012,001,16,2021_Nov_08_1449,task-switching-replication,2021.2.3,59.99876978535615,
1,19,timed,16,sitting,noswitch,incongruant,dashed,square,yellow,stimuli/dashed-rectangle.png,stimuli/yellow-square.png,1,,,,,,,,,,,,,0,18,18,18,,,,,,,,,,,,,,,,,,,,,,,,,,,,,,,,,,,,,,,,,,,,,,,,,,,,,,,,,,,,,,,,,,,,,,,,,,,,,,,,,,,1636404761.9187636,,,,,,,,,,236.76137590408325,None,,,,,,,,,,,,,,,,,235.21934700012207,None,236.2092409133911,None,1,1,236.2092409133911,None,,,,,0.44547510147094727,,,,,,,,,,,,,,,,,,,,,,,,,,,,8012,001,16,2021_Nov_08_1449,task-switching-replication,2021.2.3,59.99876978535615,
1,20,timed,16,sitting,switch,congruant,solid,square,blue,stimuli/solid-rectangle.png,stimuli/blue-square.png,1,,,,,,,,,,,,,0,19,19,19,,,,,,,,,,,,,,,,,,,,,,,,,,,,,,,,,,,,,,,,,,,,,,,,,,,,,,,,,,,,,,,,,,,,,,,,,,,,,,,,,,,1636404763.7489944,,,,,,,,,,238.59147906303406,None,,,,,,,,,,,,,,,,,236.99076509475708,None,237.9802188873291,None,1,1,237.9802188873291,None,,,,,0.4639251232147217,,,,,,,,,,,,,,,,,,,,,,,,,,,,8012,001,16,2021_Nov_08_1449,task-switching-replication,2021.2.3,59.99876978535615,
1,21,timed,16,sitting,noswitch,congruant,solid,square,yellow,stimuli/solid-rectangle.png,stimuli/yellow-square.png,1,,,,,,,,,,,,,0,20,20,20,,,,,,,,,,,,,,,,,,,,,,,,,,,,,,,,,,,,,,,,,,,,,,,,,,,,,,,,,,,,,,,,,,,,,,,,,,,,,,,,,,,1636404765.6384363,,,,,,,,,,240.48109698295593,None,,,,,,,,,,,,,,,,,238.82030391693115,None,239.8099808692932,None,1,1,239.8099808692932,None,,,,,0.5191650390625,,,,,,,,,,,,,,,,,,,,,,,,,,,,8012,001,16,2021_Nov_08_1449,task-switching-replication,2021.2.3,59.99876978535615,
1,22,timed,16,sitting,switch,congruant,dashed,square,yellow,stimuli/dashed-rectangle.png,stimuli/yellow-square.png,1,,,,,,,,,,,,,0,21,21,21,,,,,,,,,,,,,,,,,,,,,,,,,,,,,,,,,,,,,,,,,,,,,,,,,,,,,,,,,,,,,,,,,,,,,,,,,,,,,,,,,,,1636404768.1231353,,,,,,,,,,242.96567106246948,None,,,,,,,,,,,,,,,,,240.71040391921997,None,241.70158505439758,None,1,1,241.70158505439758,None,,,,,1.1136209964752197,,,,,,,,,,,,,,,,,,,,,,,,,,,,8012,001,16,2021_Nov_08_1449,task-switching-replication,2021.2.3,59.99876978535615,
1,23,timed,16,sitting,switch,congruant,solid,square,blue,stimuli/solid-rectangle.png,stimuli/blue-square.png,1,,,,,,,,,,,,,0,22,22,22,,,,,,,,,,,,,,,,,,,,,,,,,,,,,,,,,,,,,,,,,,,,,,,,,,,,,,,,,,,,,,,,,,,,,,,,,,,,,,,,,,,1636404770.6657686,,,,,,,,,,245.50838994979858,None,,,,,,,,,,,,,,,,,243.19482707977295,None,244.18462204933167,None,1,1,244.18462204933167,None,,,,,1.2224998474121094,,,,,,,,,,,,,,,,,,,,,,,,,,,,8012,001,16,2021_Nov_08_1449,task-switching-replication,2021.2.3,59.99876978535615,
1,24,timed,16,sitting,noswitch,incongruant,solid,triangle,yellow,stimuli/solid-rectangle.png,stimuli/yellow-triangle.png,2,,,,,,,,,,,,,0,23,23,23,,,,,,,,,,,,,,,,,,,,,,,,,,,,,,,,,,,,,,,,,,,,,,,,,,,,,,,,,,,,,,,,,,,,,,,,,,,,,,,,,,,1636404772.559866,,,,,,,,,,247.401762008667,None,,,,,,,,,,,,,,,,,245.73757600784302,None,246.72752404212952,None,2,1,246.72752404212952,None,,,,,0.5309638977050781,,,,,,,,,,,,,,,,,,,,,,,,,,,,8012,001,16,2021_Nov_08_1449,task-switching-replication,2021.2.3,59.99876978535615,
1,1,experiment,16,sitting,buffer,buffer,solid,square,blue,stimuli/solid-rectangle.png,stimuli/blue-square.png,1,,,,,,,,,,,,,,,,,,,,,,,,,0,0,0,0,0,0,0,0,0,0,0,0,0,0,0,0,,,,,247.64558601379395,None,2,27.445531129837036,247.64558601379395,None,,,,,,,,,,,,,,,,,,,,,,,,,,,,,,,,,,,,,,,,,,,,,,,,,1636404814.476743,,,,,,,,,,,,289.30049834251406,290.3523380756378,289.3320770263672,None,,,,,,,,,,,,,,,,,,,,,,,,,,275.2080829143524,None,1,10.323978900909424,275.2080829143524,None,285.6767039299011,None,1,0.9462630748748779,285.6767039299011,None,286.77017998695374,None,287.7602128982544,None,None,0,287.7602128982544,None,,,,,,,,8012,001,16,2021_Nov_08_1449,task-switching-replication,2021.2.3,59.99876978535615,
1,1,experiment,16,sitting,buffer,buffer,solid,square,blue,stimuli/solid-rectangle.png,stimuli/blue-square.png,1,,,,,,,,,,,,,,,,,,,,,,,,,0,0,0,0,0,0,0,0,0,0,0,0,,,,,,,,,,,,,,,,,,,,,,,,,,,,,,,,,,,,,,,,,,,,,,,,,,,,,,,,,,,,,,,,,,,,,,,,,294.36232590675354,None,,,,,,,,,,,,,,,,,,,,,,,,,,,,,,,,,,,,,,,,,,,,,,,,,,,,,,,,,8012,001,16,2021_Nov_08_1449,task-switching-replication,2021.2.3,59.99876978535615,
1,2,experiment,16,sitting,noswitch,incongruant,solid,triangle,yellow,stimuli/solid-rectangle.png,stimuli/yellow-triangle.png,2,,,,,,,,,,,,,,,,,,,,,,,,,0,0,0,0,0,0,0,0,0,1,1,1,,,,,,,,,,,,,,,,,,,,,,,,,,,,,,,,,,,,,,,,,,,,,,,,,,,,,,,,,,,,,,,1636404821.3785198,,,,,,,,,,296.2210810184479,None,,,,,,,,,,,,,,,,,,,,,,,,,,,,,,,,,,,,,,,,,,294.5597848892212,None,295.54977107048035,None,2,1,295.54977107048035,None,0.557528018951416,,,,,,,8012,001,16,2021_Nov_08_1449,task-switching-replication,2021.2.3,59.99876978535615,
1,3,experiment,16,sitting,noswitch,congruant,solid,triangle,blue,stimuli/solid-rectangle.png,stimuli/blue-triangle.png,2,,,,,,,,,,,,,,,,,,,,,,,,,0,0,0,0,0,0,0,0,0,2,2,2,,,,,,,,,,,,,,,,,,,,,,,,,,,,,,,,,,,,,,,,,,,,,,,,,,,,,,,,,,,,,,,1636404823.2083836,,,,,,,,,,298.0509898662567,None,,,,,,,,,,,,,,,,,,,,,,,,,,,,,,,,,,,,,,,,,,296.45056104660034,None,297.43988394737244,None,2,1,297.43988394737244,None,0.5161030292510986,,,,,,,8012,001,16,2021_Nov_08_1449,task-switching-replication,2021.2.3,59.99876978535615,
1,4,experiment,16,sitting,switch,congruant,dashed,square,blue,stimuli/dashed-rectangle.png,stimuli/blue-square.png,2,,,,,,,,,,,,,,,,,,,,,,,,,0,0,0,0,0,0,0,0,0,3,3,3,,,,,0,0,0,0,,,,,,,,,,,,,,,,,,,,,,,,,,,,,,,,,,,,,,,,,,,,,,,,,,,,,,,1636404825.5120652,,,,,,,,,,,,,,,,,,,,,,,,,,,,,,,,,,,,300.32646441459656,301.34563398361206,300.35935401916504,None,,,,,,,,,,,,,,298.280081987381,None,299.2693829536438,None,1,0,299.2693829536438,None,0.9755761623382568,,,,,,,8012,001,16,2021_Nov_08_1449,task-switching-replication,2021.2.3,59.99876978535615,
1,4,experiment,16,sitting,switch,congruant,dashed,square,blue,stimuli/dashed-rectangle.png,stimuli/blue-square.png,2,,,,,,,,,,,,,,,,,,,,,,,,,0,0,0,0,0,0,0,0,0,3,3,3,,,,,,,,,,,,,,,,,,,,,,,,,,,,,,,,,,,,,,,,,,,,,,,,,,,,,,,,,,,,,,,,,,,,,,,,,305.3889410495758,None,,,,,,,,,,,,,,,,,,,,,,,,,,,,,,,,,,,,,,,,,,,,,,,,,,,,,,,,,8012,001,16,2021_Nov_08_1449,task-switching-replication,2021.2.3,59.99876978535615,
1,5,experiment,16,sitting,noswitch,incongruant,dashed,triangle,yellow,stimuli/dashed-rectangle.png,stimuli/yellow-triangle.png,1,,,,,,,,,,,,,,,,,,,,,,,,,0,0,0,0,0,0,0,0,0,4,4,4,,,,,,,,,,,,,,,,,,,,,,,,,,,,,,,,,,,,,,,,,,,,,,,,,,,,,,,,,,,,,,,1636404832.5239427,,,,,,,,,,307.3664629459381,None,,,,,,,,,,,,,,,,,,,,,,,,,,,,,,,,,,,,,,,,,,305.5858578681946,None,306.5763289928436,None,1,1,306.5763289928436,None,0.6704549789428711,,,,,,,8012,001,16,2021_Nov_08_1449,task-switching-replication,2021.2.3,59.99876978535615,
1,6,experiment,16,sitting,switch,congruant,solid,square,yellow,stimuli/solid-rectangle.png,stimuli/yellow-square.png,1,,,,,,,,,,,,,,,,,,,,,,,,,0,0,0,0,0,0,0,0,0,5,5,5,,,,,,,,,,,,,,,,,,,,,,,,,,,,,,,,,,,,,,,,,,,,,,,,,,,,,,,,,,,,,,,1636404834.77262,,,,,,,,,,309.61507391929626,None,,,,,,,,,,,,,,,,,,,,,,,,,,,,,,,,,,,,,,,,,,307.59641098976135,None,308.58757400512695,None,1,1,308.58757400512695,None,0.8833680152893066,,,,,,,8012,001,16,2021_Nov_08_1449,task-switching-replication,2021.2.3,59.99876978535615,
1,7,experiment,16,sitting,switch,congruant,dashed,triangle,yellow,stimuli/dashed-rectangle.png,stimuli/yellow-triangle.png,1,,,,,,,,,,,,,,,,,,,,,,,,,0,0,0,0,0,0,0,0,0,6,6,6,,,,,,,,,,,,,,,,,,,,,,,,,,,,,,,,,,,,,,,,,,,,,,,,,,,,,,,,,,,,,,,1636404837.3144674,,,,,,,,,,312.1571490764618,None,,,,,,,,,,,,,,,,,,,,,,,,,,,,,,,,,,,,,,,,,,309.8445520401001,None,310.8344600200653,None,1,1,310.8344600200653,None,1.2162809371948242,,,,,,,8012,001,16,2021_Nov_08_1449,task-switching-replication,2021.2.3,59.99876978535615,
1,8,experiment,16,sitting,switch,congruant,solid,square,blue,stimuli/solid-rectangle.png,stimuli/blue-square.png,1,,,,,,,,,,,,,,,,,,,,,,,,,0,0,0,0,0,0,0,0,0,7,7,7,,,,,,,,,,,,,,,,,,,,,,,,,,,,,,,,,,,,,,,,,,,,,,,,,,,,,,,,,,,,,,,1636404839.5012155,,,,,,,,,,314.34387588500977,None,,,,,,,,,,,,,,,,,,,,,,,,,,,,,,,,,,,,,,,,,,312.3867349624634,None,313.3765540122986,None,1,1,313.3765540122986,None,0.8561620712280273,,,,,,,8012,001,16,2021_Nov_08_1449,task-switching-replication,2021.2.3,59.99876978535615,
1,9,experiment,16,sitting,noswitch,congruant,solid,square,yellow,stimuli/solid-rectangle.png,stimuli/yellow-square.png,1,,,,,,,,,,,,,,,,,,,,,,,,,0,0,0,0,0,0,0,0,0,8,8,8,,,,,,,,,,,,,,,,,,,,,,,,,,,,,,,,,,,,,,,,,,,,,,,,,,,,,,,,,,,,,,,1636404841.3333511,,,,,,,,,,316.1759738922119,None,,,,,,,,,,,,,,,,,,,,,,,,,,,,,,,,,,,,,,,,,,314.57323002815247,None,315.5642740726471,None,1,1,315.5642740726471,None,0.46343088150024414,,,,,,,8012,001,16,2021_Nov_08_1449,task-switching-replication,2021.2.3,59.99876978535615,
1,10,experiment,16,sitting,switch,incongruant,dashed,triangle,blue,stimuli/dashed-rectangle.png,stimuli/blue-triangle.png,2,,,,,,,,,,,,,,,,,,,,,,,,,0,0,0,0,0,0,0,0,0,9,9,9,,,,,,,,,,,,,,,,,,,,,,,,,,,,,,,,,,,,,,,,,,,,,,,,,,,,,,,,,,,,,,,1636404843.107313,,,,,,,,,,317.9490029811859,None,,,,,,,,,,,,,,,,,,,,,,,,,,,,,,,,,,,,,,,,,,316.40532994270325,None,317.39388704299927,None,2,1,317.39388704299927,None,0.43189191818237305,,,,,,,8012,001,16,2021_Nov_08_1449,task-switching-replication,2021.2.3,59.99876978535615,
1,11,experiment,16,sitting,noswitch,congruant,dashed,triangle,blue,stimuli/dashed-rectangle.png,stimuli/blue-triangle.png,2,,,,,,,,,,,,,,,,,,,,,,,,,0,0,0,0,0,0,0,0,0,10,10,10,,,,,,,,,,,,,,,,,,,,,,,,,,,,,,,,,,,,,,,,,,,,,,,,,,,,,,,,,,,,,,,1636404844.996579,,,,,,,,,,319.8393008708954,None,,,,,,,,,,,,,,,,,,,,,,,,,,,,,,,,,,,,,,,,,,318.1785719394684,None,319.168408870697,None,2,1,319.168408870697,None,0.5725998878479004,,,,,,,8012,001,16,2021_Nov_08_1449,task-switching-replication,2021.2.3,59.99876978535615,
1,12,experiment,16,sitting,noswitch,congruant,dashed,triangle,blue,stimuli/dashed-rectangle.png,stimuli/blue-triangle.png,2,,,,,,,,,,,,,,,,,,,,,,,,,0,0,0,0,0,0,0,0,0,11,11,11,,,,,,,,,,,,,,,,,,,,,,,,,,,,,,,,,,,,,,,,,,,,,,,,,,,,,,,,,,,,,,,1636404846.886429,,,,,,,,,,321.72887992858887,None,,,,,,,,,,,,,,,,,,,,,,,,,,,,,,,,,,,,,,,,,,320.06876397132874,None,321.05828309059143,None,2,1,321.05828309059143,None,0.5255911350250244,,,,,,,8012,001,16,2021_Nov_08_1449,task-switching-replication,2021.2.3,59.99876978535615,
1,13,experiment,16,sitting,noswitch,incongruant,dashed,triangle,yellow,stimuli/dashed-rectangle.png,stimuli/yellow-triangle.png,1,,,,,,,,,,,,,,,,,,,,,,,,,0,0,0,0,0,0,0,0,0,12,12,12,,,,,,,,,,,,,,,,,,,,,,,,,,,,,,,,,,,,,,,,,,,,,,,,,,,,,,,,,,,,,,,1636404848.8984857,,,,,,,,,,323.74030900001526,None,,,,,,,,,,,,,,,,,,,,,,,,,,,,,,,,,,,,,,,,,,321.95887994766235,None,322.9482910633087,None,1,1,322.9482910633087,None,0.6533288955688477,,,,,,,8012,001,16,2021_Nov_08_1449,task-switching-replication,2021.2.3,59.99876978535615,
1,14,experiment,16,sitting,switch,incongruant,solid,triangle,blue,stimuli/solid-rectangle.png,stimuli/blue-triangle.png,2,,,,,,,,,,,,,,,,,,,,,,,,,0,0,0,0,0,0,0,0,0,13,13,13,,,,,,,,,,,,,,,,,,,,,,,,,,,,,,,,,,,,,,,,,,,,,,,,,,,,,,,,,,,,,,,1636404851.0238883,,,,,,,,,,325.86612200737,None,,,,,,,,,,,,,,,,,,,,,,,,,,,,,,,,,,,,,,,,,,323.97018909454346,None,324.9590940475464,None,2,1,324.9590940475464,None,0.7988998889923096,,,,,,,8012,001,16,2021_Nov_08_1449,task-switching-replication,2021.2.3,59.99876978535615,
1,15,experiment,16,sitting,noswitch,incongruant,solid,square,yellow,stimuli/solid-rectangle.png,stimuli/yellow-square.png,1,,,,,,,,,,,,,,,,,,,,,,,,,0,0,0,0,0,0,0,0,0,14,14,14,,,,,,,,,,,,,,,,,,,,,,,,,,,,,,,,,,,,,,,,,,,,,,,,,,,,,,,,,,,,,,,1636404852.9140813,,,,,,,,,,327.75625491142273,None,,,,,,,,,,,,,,,,,,,,,,,,,,,,,,,,,,,,,,,,,,326.0955710411072,None,327.0859830379486,None,1,1,327.0859830379486,None,0.5666348934173584,,,,,,,8012,001,16,2021_Nov_08_1449,task-switching-replication,2021.2.3,59.99876978535615,
1,16,experiment,16,sitting,noswitch,congruant,solid,square,yellow,stimuli/solid-rectangle.png,stimuli/yellow-square.png,1,,,,,,,,,,,,,,,,,,,,,,,,,0,0,0,0,0,0,0,0,0,15,15,15,,,,,,,,,,,,,,,,,,,,,,,,,,,,,,,,,,,,,,,,,,,,,,,,,,,,,,,,,,,,,,,1636404854.5675926,,,,,,,,,,329.41031193733215,None,,,,,,,,,,,,,,,,,,,,,,,,,,,,,,,,,,,,,,,,,,327.9861309528351,None,328.97632694244385,None,1,1,328.97632694244385,None,0.3175530433654785,,,,,,,8012,001,16,2021_Nov_08_1449,task-switching-replication,2021.2.3,59.99876978535615,
1,17,experiment,16,sitting,switch,incongruant,dashed,square,blue,stimuli/dashed-rectangle.png,stimuli/blue-square.png,2,,,,,,,,,,,,,,,,,,,,,,,,,0,0,0,0,0,0,0,0,0,16,16,16,,,,,,,,,,,,,,,,,,,,,,,,,,,,,,,,,,,,,,,,,,,,,,,,,,,,,,,,,,,,,,,1636404856.4293659,,,,,,,,,,331.2714409828186,None,,,,,,,,,,,,,,,,,,,,,,,,,,,,,,,,,,,,,,,,,,329.72977900505066,None,330.71944403648376,None,2,1,330.71944403648376,None,0.43663907051086426,,,,,,,8012,001,16,2021_Nov_08_1449,task-switching-replication,2021.2.3,59.99876978535615,
1,18,experiment,16,sitting,noswitch,congruant,dashed,square,blue,stimuli/dashed-rectangle.png,stimuli/blue-square.png,2,,,,,,,,,,,,,,,,,,,,,,,,,0,0,0,0,0,0,0,0,0,17,17,17,,,,,,,,,,,,,,,,,,,,,,,,,,,,,,,,,,,,,,,,,,,,,,,,,,,,,,,,,,,,,,,1636404858.0823727,,,,,,,,,,332.92505502700806,None,,,,,,,,,,,,,,,,,,,,,,,,,,,,,,,,,,,,,,,,,,331.5009939670563,None,332.49103808403015,None,2,1,332.49103808403015,None,0.3057839870452881,,,,,,,8012,001,16,2021_Nov_08_1449,task-switching-replication,2021.2.3,59.99876978535615,
1,19,experiment,16,sitting,switch,incongruant,solid,square,blue,stimuli/solid-rectangle.png,stimuli/blue-square.png,1,,,,,,,,,,,,,,,,,,,,,,,,,0,0,0,0,0,0,0,0,0,18,18,18,,,,,,,,,,,,,,,,,,,,,,,,,,,,,,,,,,,,,,,,,,,,,,,,,,,,,,,,,,,,,,,1636404859.971363,,,,,,,,,,334.8138110637665,None,,,,,,,,,,,,,,,,,,,,,,,,,,,,,,,,,,,,,,,,,,333.15447092056274,None,334.1435639858246,None,1,1,334.1435639858246,None,0.5664229393005371,,,,,,,8012,001,16,2021_Nov_08_1449,task-switching-replication,2021.2.3,59.99876978535615,
1,20,experiment,16,sitting,switch,congruant,dashed,square,yellow,stimuli/dashed-rectangle.png,stimuli/yellow-square.png,1,,,,,,,,,,,,,,,,,,,,,,,,,0,0,0,0,0,0,0,0,0,19,19,19,,,,,,,,,,,,,,,,,,,,,,,,,,,,,,,,,,,,,,,,,,,,,,,,,,,,,,,,,,,,,,,1636404861.9212406,,,,,,,,,,336.8275730609894,None,,,,,,,,,,,,,,,,,,,,,,,,,,,,,,,,,,,,,,,,,,335.04325795173645,None,336.0331618785858,None,1,1,336.0331618785858,None,0.6355099678039551,,,,,,,8012,001,16,2021_Nov_08_1449,task-switching-replication,2021.2.3,59.99876978535615,
1,21,experiment,16,sitting,noswitch,congruant,dashed,square,yellow,stimuli/dashed-rectangle.png,stimuli/yellow-square.png,1,,,,,,,,,,,,,,,,,,,,,,,,,0,0,0,0,0,0,0,0,0,20,20,20,,,,,,,,,,,,,,,,,,,,,,,,,,,,,,,,,,,,,,,,,,,,,,,,,,,,,,,,,,,,,,,1636404863.573351,,,,,,,,,,338.4158709049225,None,,,,,,,,,,,,,,,,,,,,,,,,,,,,,,,,,,,,,,,,,,336.99238896369934,None,337.98216700553894,None,1,1,337.98216700553894,None,0.30746889114379883,,,,,,,8012,001,16,2021_Nov_08_1449,task-switching-replication,2021.2.3,59.99876978535615,
1,22,experiment,16,sitting,noswitch,congruant,dashed,triangle,yellow,stimuli/dashed-rectangle.png,stimuli/yellow-triangle.png,1,,,,,,,,,,,,,,,,,,,,,,,,,0,0,0,0,0,0,0,0,0,21,21,21,,,,,,,,,,,,,,,,,,,,,,,,,,,,,,,,,,,,,,,,,,,,,,,,,,,,,,,,,,,,,,,1636404865.5836904,,,,,,,,,,340.4263470172882,None,,,,,,,,,,,,,,,,,,,,,,,,,,,,,,,,,,,,,,,,,,338.6450219154358,None,339.6365840435028,None,1,1,339.6365840435028,None,0.6480369567871094,,,,,,,8012,001,16,2021_Nov_08_1449,task-switching-replication,2021.2.3,59.99876978535615,
1,23,experiment,16,sitting,noswitch,incongruant,dashed,triangle,blue,stimuli/dashed-rectangle.png,stimuli/blue-triangle.png,2,,,,,,,,,,,,,,,,,,,,,,,,,0,0,0,0,0,0,0,0,0,22,22,22,,,,,,,,,,,,,,,,,,,,,,,,,,,,,,,,,,,,,,,,,,,,,,,,,,,,,,,,,,,,,,,1636404867.415933,,,,,,,,,,342.25773906707764,None,,,,,,,,,,,,,,,,,,,,,,,,,,,,,,,,,,,,,,,,,,340.6557900905609,None,341.645437002182,None,2,1,341.645437002182,None,0.4836769104003906,,,,,,,8012,001,16,2021_Nov_08_1449,task-switching-replication,2021.2.3,59.99876978535615,
1,24,experiment,16,sitting,switch,incongruant,solid,square,blue,stimuli/solid-rectangle.png,stimuli/blue-square.png,1,,,,,,,,,,,,,,,,,,,,,,,,,0,0,0,0,0,0,0,0,0,23,23,23,,,,,,,,,,,,,,,,,,,,,,,,,,,,,,,,,,,,,,,,,,,,,,,,,,,,,,,,,,,,,,,1636404869.1885443,,,,,,,,,,344.03039598464966,None,,,,,,,,,,,,,,,,,,,,,,,,,,,,,,,,,,,,,,,,,,342.48691487312317,None,343.47550106048584,None,1,1,343.47550106048584,None,0.40631103515625,,,,,,,8012,001,16,2021_Nov_08_1449,task-switching-replication,2021.2.3,59.99876978535615,
1,25,experiment,16,sitting,noswitch,incongruant,solid,triangle,blue,stimuli/solid-rectangle.png,stimuli/blue-triangle.png,2,,,,,,,,,,,,,,,,,,,,,,,,,0,0,0,0,0,0,0,0,0,24,24,24,,,,,,,,,,,,,,,,,,,,,,,,,,,,,,,,,,,,,,,,,,,,,,,,,,,,,,,,,,,,,,,1636404871.788041,,,,,,,,,,346.63019704818726,None,,,,,,,,,,,,,,,,,,,,,,,,,,,,,,,,,,,,,,,,,,344.2598419189453,None,345.2498559951782,None,2,1,345.2498559951782,None,1.2860801219940186,,,,,,,8012,001,16,2021_Nov_08_1449,task-switching-replication,2021.2.3,59.99876978535615,
1,26,experiment,16,sitting,switch,congruant,dashed,triangle,blue,stimuli/dashed-rectangle.png,stimuli/blue-triangle.png,2,,,,,,,,,,,,,,,,,,,,,,,,,0,0,0,0,0,0,0,0,0,25,25,25,,,,,,,,,,,,,,,,,,,,,,,,,,,,,,,,,,,,,,,,,,,,,,,,,,,,,,,,,,,,,,,1636404874.3287833,,,,,,,,,,349.1714448928833,None,,,,,,,,,,,,,,,,,,,,,,,,,,,,,,,,,,,,,,,,,,346.8593969345093,None,347.8492350578308,None,2,1,347.8492350578308,None,1.1894779205322266,,,,,,,8012,001,16,2021_Nov_08_1449,task-switching-replication,2021.2.3,59.99876978535615,
1,27,experiment,16,sitting,noswitch,congruant,dashed,square,blue,stimuli/dashed-rectangle.png,stimuli/blue-square.png,2,,,,,,,,,,,,,,,,,,,,,,,,,0,0,0,0,0,0,0,0,0,26,26,26,,,,,,,,,,,,,,,,,,,,,,,,,,,,,,,,,,,,,,,,,,,,,,,,,,,,,,,,,,,,,,,1636404876.6329296,,,,,,,,,,351.4755048751831,None,,,,,,,,,,,,,,,,,,,,,,,,,,,,,,,,,,,,,,,,,,349.4009780883789,None,350.39066100120544,None,2,1,350.39066100120544,None,0.9740219116210938,,,,,,,8012,001,16,2021_Nov_08_1449,task-switching-replication,2021.2.3,59.99876978535615,
1,28,experiment,16,sitting,switch,incongruant,solid,square,blue,stimuli/solid-rectangle.png,stimuli/blue-square.png,1,,,,,,,,,,,,,,,,,,,,,,,,,0,0,0,0,0,0,0,0,0,27,27,27,,,,,,,,,,,,,,,,,,,,,,,,,,,,,,,,,,,,,,,,,,,,,,,,,,,,,,,,,,,,,,,1636404879.0559664,,,,,,,,,,353.8976640701294,None,,,,,,,,,,,,,,,,,,,,,,,,,,,,,,,,,,,,,,,,,,351.7047140598297,None,352.69365096092224,None,1,1,352.69365096092224,None,1.0701830387115479,,,,,,,8012,001,16,2021_Nov_08_1449,task-switching-replication,2021.2.3,59.99876978535615,
1,29,experiment,16,sitting,noswitch,congruant,solid,square,yellow,stimuli/solid-rectangle.png,stimuli/yellow-square.png,1,,,,,,,,,,,,,,,,,,,,,,,,,0,0,0,0,0,0,0,0,0,28,28,28,,,,,,,,,,,,,,,,,,,,,,,,,,,,,,,,,,,,,,,,,,,,,,,,,,,,,,,,,,,,,,,1636404880.9455194,,,,,,,,,,355.7883439064026,None,,,,,,,,,,,,,,,,,,,,,,,,,,,,,,,,,,,,,,,,,,354.12760496139526,None,355.11733198165894,None,1,1,355.11733198165894,None,0.5773389339447021,,,,,,,8012,001,16,2021_Nov_08_1449,task-switching-replication,2021.2.3,59.99876978535615,
1,30,experiment,16,sitting,noswitch,incongruant,solid,triangle,blue,stimuli/solid-rectangle.png,stimuli/blue-triangle.png,2,,,,,,,,,,,,,,,,,,,,,,,,,0,0,0,0,0,0,0,0,0,29,29,29,,,,,,,,,,,,,,,,,,,,,,,,,,,,,,,,,,,,,,,,,,,,,,,,,,,,,,,,,,,,,,,1636404882.8346734,,,,,,,,,,357.67750096321106,None,,,,,,,,,,,,,,,,,,,,,,,,,,,,,,,,,,,,,,,,,,356.01816987991333,None,357.00687289237976,None,2,1,357.00687289237976,None,0.5548949241638184,,,,,,,8012,001,16,2021_Nov_08_1449,task-switching-replication,2021.2.3,59.99876978535615,
1,31,experiment,16,sitting,switch,incongruant,dashed,square,yellow,stimuli/dashed-rectangle.png,stimuli/yellow-square.png,1,,,,,,,,,,,,,,,,,,,,,,,,,0,0,0,0,0,0,0,0,0,30,30,30,,,,,,,,,,,,,,,,,,,,,,,,,,,,,,,,,,,,,,,,,,,,,,,,,,,,,,,,,,,,,,,1636404884.6682925,,,,,,,,,,359.51012802124023,None,,,,,,,,,,,,,,,,,,,,,,,,,,,,,,,,,,,,,,,,,,357.9069359302521,None,358.89639687538147,None,1,1,358.89639687538147,None,0.4799838066101074,,,,,,,8012,001,16,2021_Nov_08_1449,task-switching-replication,2021.2.3,59.99876978535615,
1,32,experiment,16,sitting,switch,incongruant,solid,triangle,yellow,stimuli/solid-rectangle.png,stimuli/yellow-triangle.png,2,,,,,,,,,,,,,,,,,,,,,,,,,0,0,0,0,0,0,0,0,0,31,31,31,0,0,0,0,,,,,,,,,,,,,,,,,,,,,,,,,,,,,,,,,,,,,,,,,,,,,,,,,,,,,,,,,,,1636404887.44537,,,,,,,,,,,,362.2689684391022,363.2884089946747,362.30175495147705,None,,,,,,,,,,,,,,,,,,,,,,,,,,,,,,,,,,,,,,359.739284992218,None,360.72871804237366,None,None,0,360.72871804237366,None,,,,,,,,8012,001,16,2021_Nov_08_1449,task-switching-replication,2021.2.3,59.99876978535615,
1,32,experiment,16,sitting,switch,incongruant,solid,triangle,yellow,stimuli/solid-rectangle.png,stimuli/yellow-triangle.png,2,,,,,,,,,,,,,,,,,,,,,,,,,0,0,0,0,0,0,0,0,0,31,31,31,,,,,,,,,,,,,,,,,,,,,,,,,,,,,,,,,,,,,,,,,,,,,,,,,,,,,,,,,,,,,,,,,,,,,,,,,367.29866194725037,None,,,,,,,,,,,,,,,,,,,,,,,,,,,,,,,,,,,,,,,,,,,,,,,,,,,,,,,,,8012,001,16,2021_Nov_08_1449,task-switching-replication,2021.2.3,59.99876978535615,
1,33,experiment,16,sitting,switch,congruant,dashed,triangle,blue,stimuli/dashed-rectangle.png,stimuli/blue-triangle.png,2,,,,,,,,,,,,,,,,,,,,,,,,,0,0,0,0,0,0,0,0,0,32,32,32,,,,,,,,,,,,,,,,,,,,,,,,,,,,,,,,,,,,,,,,,,,,,,,,,,,,,,,,,,,,,,,1636404894.4649398,,,,,,,,,,369.3074049949646,None,,,,,,,,,,,,,,,,,,,,,,,,,,,,,,,,,,,,,,,,,,367.52802991867065,None,368.51811504364014,None,2,1,368.51811504364014,None,0.6645901203155518,,,,,,,8012,001,16,2021_Nov_08_1449,task-switching-replication,2021.2.3,59.99876978535615,
1,34,experiment,16,sitting,noswitch,incongruant,dashed,triangle,yellow,stimuli/dashed-rectangle.png,stimuli/yellow-triangle.png,1,,,,,,,,,,,,,,,,,,,,,,,,,0,0,0,0,0,0,0,0,0,33,33,33,,,,,,,,,,,,,,,,,,,,,,,,,,,,,,,,,,,,,,,,,,,,,,,,,,,,,,,,,,,,,,,1636404896.9447215,,,,,,,,,,371.78677797317505,None,,,,,,,,,,,,,,,,,,,,,,,,,,,,,,,,,,,,,,,,,,369.53625106811523,None,370.524610042572,None,1,1,370.524610042572,None,1.148163080215454,,,,,,,8012,001,16,2021_Nov_08_1449,task-switching-replication,2021.2.3,59.99876978535615,
1,35,experiment,16,sitting,switch,incongruant,solid,triangle,yellow,stimuli/solid-rectangle.png,stimuli/yellow-triangle.png,2,,,,,,,,,,,,,,,,,,,,,,,,,0,0,0,0,0,0,0,0,0,34,34,34,,,,,,,,,,,,,,,,,,,,,,,,,,,,,,,,,,,,,,,,,,,,,,,,,,,,,,,,,,,,,,,1636404899.13047,,,,,,,,,,373.9723210334778,None,,,,,,,,,,,,,,,,,,,,,,,,,,,,,,,,,,,,,,,,,,372.01612997055054,None,373.0046479701996,None,2,1,373.0046479701996,None,0.8191559314727783,,,,,,,8012,001,16,2021_Nov_08_1449,task-switching-replication,2021.2.3,59.99876978535615,
1,36,experiment,16,sitting,switch,incongruant,dashed,triangle,yellow,stimuli/dashed-rectangle.png,stimuli/yellow-triangle.png,1,,,,,,,,,,,,,,,,,,,,,,,,,0,0,0,0,0,0,0,0,0,35,35,35,,,,,,,,,,,,,,,,,,,,,,,,,,,,,,,,,,,,,,,,,,,,,,,,,,,,,,,,,,,,,,,1636404901.0814579,,,,,,,,,,375.9232270717621,None,,,,,,,,,,,,,,,,,,,,,,,,,,,,,,,,,,,,,,,,,,374.2018539905548,None,375.1915690898895,None,1,1,375.1915690898895,None,0.5878398418426514,,,,,,,8012,001,16,2021_Nov_08_1449,task-switching-replication,2021.2.3,59.99876978535615,
1,37,experiment,16,sitting,switch,incongruant,solid,triangle,blue,stimuli/solid-rectangle.png,stimuli/blue-triangle.png,2,,,,,,,,,,,,,,,,,,,,,,,,,0,0,0,0,0,0,0,0,0,36,36,36,0,0,0,0,,,,,,,,,,,,,,,,,,,,,,,,,,,,,,,,,,,,,,,,,,,,,,,,,,,,,,,,,,,1636404903.5062635,,,,,,,,,,,,378.32066345214844,379.3391680717468,378.3536260128021,None,,,,,,,,,,,,,,,,,,,,,,,,,,,,,,,,,,,,,,376.1540598869324,None,377.1445128917694,None,1,0,377.1445128917694,None,1.05308198928833,,,,,,,8012,001,16,2021_Nov_08_1449,task-switching-replication,2021.2.3,59.99876978535615,
1,37,experiment,16,sitting,switch,incongruant,solid,triangle,blue,stimuli/solid-rectangle.png,stimuli/blue-triangle.png,2,,,,,,,,,,,,,,,,,,,,,,,,,0,0,0,0,0,0,0,0,0,36,36,36,,,,,,,,,,,,,,,,,,,,,,,,,,,,,,,,,,,,,,,,,,,,,,,,,,,,,,,,,,,,,,,,,,,,,,,,,383.3580160140991,None,,,,,,,,,,,,,,,,,,,,,,,,,,,,,,,,,,,,,,,,,,,,,,,,,,,,,,,,,8012,001,16,2021_Nov_08_1449,task-switching-replication,2021.2.3,59.99876978535615,
1,38,experiment,16,sitting,switch,incongruant,dashed,square,yellow,stimuli/dashed-rectangle.png,stimuli/yellow-square.png,1,,,,,,,,,,,,,,,,,,,,,,,,,0,0,0,0,0,0,0,0,0,37,37,37,,,,,0,0,0,0,,,,,,,,,,,,,,,,,,,,,,,,,,,,,,,,,,,,,,,,,,,,,,,,,,,,,,,1636404911.2623994,,,,,,,,,,,,,,,,,,,,,,,,,,,,,,,,,,,,386.08605632781985,387.1040210723877,386.117623090744,None,,,,,,,,,,,,,,383.55493998527527,None,384.54443287849426,None,None,0,384.54443287849426,None,,,,,,,,8012,001,16,2021_Nov_08_1449,task-switching-replication,2021.2.3,59.99876978535615,
1,38,experiment,16,sitting,switch,incongruant,dashed,square,yellow,stimuli/dashed-rectangle.png,stimuli/yellow-square.png,1,,,,,,,,,,,,,,,,,,,,,,,,,0,0,0,0,0,0,0,0,0,37,37,37,,,,,,,,,,,,,,,,,,,,,,,,,,,,,,,,,,,,,,,,,,,,,,,,,,,,,,,,,,,,,,,,,,,,,,,,,391.1474199295044,None,,,,,,,,,,,,,,,,,,,,,,,,,,,,,,,,,,,,,,,,,,,,,,,,,,,,,,,,,8012,001,16,2021_Nov_08_1449,task-switching-replication,2021.2.3,59.99876978535615,
1,39,experiment,16,sitting,noswitch,incongruant,dashed,square,blue,stimuli/dashed-rectangle.png,stimuli/blue-square.png,2,,,,,,,,,,,,,,,,,,,,,,,,,0,0,0,0,0,0,0,0,0,38,38,38,,,,,,,,,,,,,,,,,,,,,,,,,,,,,,,,,,,,,,,,,,,,,,,,,,,,,,,,,,,,,,,1636404917.984533,,,,,,,,,,392.82754707336426,None,,,,,,,,,,,,,,,,,,,,,,,,,,,,,,,,,,,,,,,,,,391.34399604797363,None,392.33399987220764,None,2,1,392.33399987220764,None,0.3895108699798584,,,,,,,8012,001,16,2021_Nov_08_1449,task-switching-replication,2021.2.3,59.99876978535615,
1,40,experiment,16,sitting,noswitch,congruant,dashed,square,blue,stimuli/dashed-rectangle.png,stimuli/blue-square.png,2,,,,,,,,,,,,,,,,,,,,,,,,,0,0,0,0,0,0,0,0,0,39,39,39,,,,,,,,,,,,,,,,,,,,,,,,,,,,,,,,,,,,,,,,,,,,,,,,,,,,,,,,,,,,,,,1636404919.6982238,,,,,,,,,,394.5409948825836,None,,,,,,,,,,,,,,,,,,,,,,,,,,,,,,,,,,,,,,,,,,393.0574760437012,None,394.0475380420685,None,2,1,394.0475380420685,None,0.36695194244384766,,,,,,,8012,001,16,2021_Nov_08_1449,task-switching-replication,2021.2.3,59.99876978535615,
1,41,experiment,16,sitting,switch,congruant,solid,triangle,yellow,stimuli/solid-rectangle.png,stimuli/yellow-triangle.png,2,,,,,,,,,,,,,,,,,,,,,,,,,0,0,0,0,0,0,0,0,0,40,40,40,,,,,,,,,,,,,,,,,,,,,,,,,,,,,,,,,,,,,,,,,,,,,,,,,,,,,,,,,,,,,,,1636404921.4697006,,,,,,,,,,396.3123700618744,None,,,,,,,,,,,,,,,,,,,,,,,,,,,,,,,,,,,,,,,,,,394.7703580856323,None,395.76008200645447,None,2,1,395.76008200645447,None,0.4055299758911133,,,,,,,8012,001,16,2021_Nov_08_1449,task-switching-replication,2021.2.3,59.99876978535615,
1,42,experiment,16,sitting,noswitch,congruant,solid,triangle,yellow,stimuli/solid-rectangle.png,stimuli/yellow-triangle.png,2,,,,,,,,,,,,,,,,,,,,,,,,,0,0,0,0,0,0,0,0,0,41,41,41,,,,,,,,,,,,,,,,,,,,,,,,,,,,,,,,,,,,,,,,,,,,,,,,,,,,,,,,,,,,,,,1636404923.359183,,,,,,,,,,398.2018609046936,None,,,,,,,,,,,,,,,,,,,,,,,,,,,,,,,,,,,,,,,,,,396.54161286354065,None,397.5310490131378,None,2,1,397.5310490131378,None,0.5693979263305664,,,,,,,8012,001,16,2021_Nov_08_1449,task-switching-replication,2021.2.3,59.99876978535615,
1,43,experiment,16,sitting,switch,incongruant,dashed,square,yellow,stimuli/dashed-rectangle.png,stimuli/yellow-square.png,1,,,,,,,,,,,,,,,,,,,,,,,,,0,0,0,0,0,0,0,0,0,42,42,42,,,,,,,,,,,,,,,,,,,,,,,,,,,,,,,,,,,,,,,,,,,,,,,,,,,,,,,,,,,,,,,1636404925.1953857,,,,,,,,,,400.0373899936676,None,,,,,,,,,,,,,,,,,,,,,,,,,,,,,,,,,,,,,,,,,,398.4313609600067,None,399.421345949173,None,1,1,399.421345949173,None,0.46732616424560547,,,,,,,8012,001,16,2021_Nov_08_1449,task-switching-replication,2021.2.3,59.99876978535615,
1,44,experiment,16,sitting,switch,congruant,solid,square,blue,stimuli/solid-rectangle.png,stimuli/blue-square.png,1,,,,,,,,,,,,,,,,,,,,,,,,,0,0,0,0,0,0,0,0,0,43,43,43,,,,,,,,,,,,,,,,,,,,,,,,,,,,,,,,,,,,,,,,,,,,,,,,,,,,,,,,,,,,,,,1636404927.4998093,,,,,,,,,,402.3424949645996,None,,,,,,,,,,,,,,,,,,,,,,,,,,,,,,,,,,,,,,,,,,400.2675840854645,None,401.25664591789246,None,1,1,401.25664591789246,None,0.9396741390228271,,,,,,,8012,001,16,2021_Nov_08_1449,task-switching-replication,2021.2.3,59.99876978535615,
1,45,experiment,16,sitting,noswitch,incongruant,solid,triangle,blue,stimuli/solid-rectangle.png,stimuli/blue-triangle.png,2,,,,,,,,,,,,,,,,,,,,,,,,,0,0,0,0,0,0,0,0,0,44,44,44,,,,,,,,,,,,,,,,,,,,,,,,,,,,,,,,,,,,,,,,,,,,,,,,,,,,,,,,,,,,,,,1636404929.628348,,,,,,,,,,404.4708659648895,None,,,,,,,,,,,,,,,,,,,,,,,,,,,,,,,,,,,,,,,,,,402.57182693481445,None,403.5618579387665,None,2,1,403.5618579387665,None,0.8128340244293213,,,,,,,8012,001,16,2021_Nov_08_1449,task-switching-replication,2021.2.3,59.99876978535615,
1,46,experiment,16,sitting,noswitch,congruant,solid,triangle,yellow,stimuli/solid-rectangle.png,stimuli/yellow-triangle.png,2,,,,,,,,,,,,,,,,,,,,,,,,,0,0,0,0,0,0,0,0,0,45,45,45,,,,,,,,,,,,,,,,,,,,,,,,,,,,,,,,,,,,,,,,,,,,,,,,,,,,,,,,,,,,,,,1636404931.2820098,,,,,,,,,,406.12473797798157,None,,,,,,,,,,,,,,,,,,,,,,,,,,,,,,,,,,,,,,,,,,404.700984954834,None,405.6908030509949,None,2,1,405.6908030509949,None,0.3186650276184082,,,,,,,8012,001,16,2021_Nov_08_1449,task-switching-replication,2021.2.3,59.99876978535615,
1,47,experiment,16,sitting,switch,incongruant,dashed,square,yellow,stimuli/dashed-rectangle.png,stimuli/yellow-square.png,1,,,,,,,,,,,,,,,,,,,,,,,,,0,0,0,0,0,0,0,0,0,46,46,46,,,,,,,,,,,,,,,,,,,,,,,,,,,,,,,,,,,,,,,,,,,,,,,,,,,,,,,,,,,,,,,1636404933.3545687,,,,,,,,,,408.1965160369873,None,,,,,,,,,,,,,,,,,,,,,,,,,,,,,,,,,,,,,,,,,,406.3540439605713,None,407.3438940048218,None,1,1,407.3438940048218,None,0.7142078876495361,,,,,,,8012,001,16,2021_Nov_08_1449,task-switching-replication,2021.2.3,59.99876978535615,
1,48,experiment,16,sitting,switch,congruant,solid,square,yellow,stimuli/solid-rectangle.png,stimuli/yellow-square.png,1,,,,,,,,,,,,,,,,,,,,,,,,,0,0,0,0,0,0,0,0,0,47,47,47,,,,,,,,,,,,,,,,,,,,,,,,,,,,,,,,,,,,,,,,,,,,,,,,,,,,,,,,,,,,,,,1636404935.4819474,,,,,,,,,,410.32455492019653,None,,,,,,,,,,,,,,,,,,,,,,,,,,,,,,,,,,,,,,,,,,408.42669701576233,None,409.41653394699097,None,1,1,409.41653394699097,None,0.8127789497375488,,,,,,,8012,001,16,2021_Nov_08_1449,task-switching-replication,2021.2.3,59.99876978535615,
1,49,experiment,16,sitting,noswitch,congruant,solid,square,blue,stimuli/solid-rectangle.png,stimuli/blue-square.png,1,,,,,,,,,,,,,,,,,,,,,,,,,0,0,0,0,0,0,0,0,0,48,48,48,,,,,,,,,,,,,,,,,,,,,,,,,,,,,,,,,,,,,,,,,,,,,,,,,,,,,,,,,,,,,,,1636404937.7274854,,,,,,,,,,412.5701789855957,None,,,,,,,,,,,,,,,,,,,,,,,,,,,,,,,,,,,,,,,,,,410.5541660785675,None,411.5437228679657,None,1,1,411.5437228679657,None,0.9256072044372559,,,,,,,8012,001,16,2021_Nov_08_1449,task-switching-replication,2021.2.3,59.99876978535615,
,,,16,,,,,,,,,,,,,,,,,,,,,,,,,,,,,,,,,,0,0,0,0,0,0,0,0,,,,,,,,,,,,,,,,,,,,,,,,,,,,,,,,,,,,,,,,,,,,,,,,,,,,,,,,,,,,,,,,,,,,,,,,,,,,,,,,,,,,,,,,,,,,,,,,,,,,,,,,,,,,,,,,,,,,,,,,,,,,,,,,,,,,,,,8012,001,16,2021_Nov_08_1449,task-switching-replication,2021.2.3,59.99876978535615,
2,1,experiment,16,sitting,buffer,buffer,dashed,square,blue,stimuli/dashed-rectangle.png,stimuli/blue-square.png,2,,,,,,,,,,,,,,,,,,,,,,,,,0,0,0,0,1,0,1,0,0,0,0,0,,,,,,,,,,,,,,,,,,,,,,,,,,,,,,,,,,,,,,,,,,,,,,,,,,,,,,,,,,,,,,,1636404945.0499065,,,,,,,,,,419.8923878669739,None,,,,,,,,,,,,,,,,,,,,,,,,,,,,,,412.8003668785095,None,1,2.728971004486084,412.8003668785095,None,415.6643350124359,None,1,2.190981149673462,415.6643350124359,None,417.99335193634033,None,418.98329305648804,None,2,1,418.98329305648804,None,0.7600629329681396,,,,,,,8012,001,16,2021_Nov_08_1449,task-switching-replication,2021.2.3,59.99876978535615,
2,2,experiment,16,sitting,noswitch,congruant,dashed,square,blue,stimuli/dashed-rectangle.png,stimuli/blue-square.png,2,,,,,,,,,,,,,,,,,,,,,,,,,0,0,0,0,1,0,1,0,0,1,1,1,,,,,,,,,,,,,,,,,,,,,,,,,,,,,,,,,,,,,,,,,,,,,,,,,,,,,,,,,,,,,,,1636404946.7635202,,,,,,,,,,421.60686707496643,None,,,,,,,,,,,,,,,,,,,,,,,,,,,,,,,,,,,,,,,,,,420.12244296073914,None,421.11310505867004,None,2,1,421.11310505867004,None,0.3614058494567871,,,,,,,8012,001,16,2021_Nov_08_1449,task-switching-replication,2021.2.3,59.99876978535615,
2,3,experiment,16,sitting,switch,congruant,solid,triangle,blue,stimuli/solid-rectangle.png,stimuli/blue-triangle.png,2,,,,,,,,,,,,,,,,,,,,,,,,,0,0,0,0,1,0,1,0,0,2,2,2,,,,,,,,,,,,,,,,,,,,,,,,,,,,,,,,,,,,,,,,,,,,,,,,,,,,,,,,,,,,,,,1636404949.1284866,,,,,,,,,,423.9710199832916,None,,,,,,,,,,,,,,,,,,,,,,,,,,,,,,,,,,,,,,,,,,421.8369219303131,None,422.8264060020447,None,2,1,422.8264060020447,None,1.0131220817565918,,,,,,,8012,001,16,2021_Nov_08_1449,task-switching-replication,2021.2.3,59.99876978535615,
2,4,experiment,16,sitting,noswitch,congruant,solid,triangle,yellow,stimuli/solid-rectangle.png,stimuli/yellow-triangle.png,2,,,,,,,,,,,,,,,,,,,,,,,,,0,0,0,0,1,0,1,0,0,3,3,3,,,,,,,,,,,,,,,,,,,,,,,,,,,,,,,,,,,,,,,,,,,,,,,,,,,,,,,,,,,,,,,1636404951.1365166,,,,,,,,,,425.97911190986633,None,,,,,,,,,,,,,,,,,,,,,,,,,,,,,,,,,,,,,,,,,,424.1997330188751,None,425.1897690296173,None,2,1,425.1897690296173,None,0.6985669136047363,,,,,,,8012,001,16,2021_Nov_08_1449,task-switching-replication,2021.2.3,59.99876978535615,
2,5,experiment,16,sitting,switch,incongruant,dashed,square,yellow,stimuli/dashed-rectangle.png,stimuli/yellow-square.png,1,,,,,,,,,,,,,,,,,,,,,,,,,0,0,0,0,1,0,1,0,0,4,4,4,,,,,,,,,,,,,,,,,,,,,,,,,,,,,,,,,,,,,,,,,,,,,,,,,,,,,,,,,,,,,,,1636404953.619291,,,,,,,,,,428.46154499053955,None,,,,,,,,,,,,,,,,,,,,,,,,,,,,,,,,,,,,,,,,,,426.20868706703186,None,427.19877409935,None,1,1,427.19877409935,None,1.1493759155273438,,,,,,,8012,001,16,2021_Nov_08_1449,task-switching-replication,2021.2.3,59.99876978535615,
2,6,experiment,16,sitting,noswitch,incongruant,dashed,triangle,blue,stimuli/dashed-rectangle.png,stimuli/blue-triangle.png,2,,,,,,,,,,,,,,,,,,,,,,,,,0,0,0,0,1,0,1,0,0,5,5,5,,,,,,,,,,,,,,,,,,,,,,,,,,,,,,,,,,,,,,,,,,,,,,,,,,,,,,,,,,,,,,,1636404955.3910036,,,,,,,,,,430.2329399585724,None,,,,,,,,,,,,,,,,,,,,,,,,,,,,,,,,,,,,,,,,,,428.6914598941803,None,429.6810989379883,None,2,1,429.6810989379883,None,0.4359450340270996,,,,,,,8012,001,16,2021_Nov_08_1449,task-switching-replication,2021.2.3,59.99876978535615,
2,7,experiment,16,sitting,switch,incongruant,solid,square,yellow,stimuli/solid-rectangle.png,stimuli/yellow-square.png,1,,,,,,,,,,,,,,,,,,,,,,,,,0,0,0,0,1,0,1,0,0,6,6,6,,,,,,,,,,,,,,,,,,,,,,,,,,,,,,,,,,,,,,,,,,,,,,,,,,,,,,,,,,,,,,,1636404957.4032845,,,,,,,,,,432.24519395828247,None,,,,,,,,,,,,,,,,,,,,,,,,,,,,,,,,,,,,,,,,,,430.4623010158539,None,431.45157408714294,None,1,1,431.45157408714294,None,0.6349589824676514,,,,,,,8012,001,16,2021_Nov_08_1449,task-switching-replication,2021.2.3,59.99876978535615,
2,8,experiment,16,sitting,noswitch,congruant,solid,square,yellow,stimuli/solid-rectangle.png,stimuli/yellow-square.png,1,,,,,,,,,,,,,,,,,,,,,,,,,0,0,0,0,1,0,1,0,0,7,7,7,,,,,,,,,,,,,,,,,,,,,,,,,,,,,,,,,,,,,,,,,,,,,,,,,,,,,,,,,,,,,,,1636404959.174272,,,,,,,,,,434.0170259475708,None,,,,,,,,,,,,,,,,,,,,,,,,,,,,,,,,,,,,,,,,,,432.47491002082825,None,433.46468591690063,None,1,1,433.46468591690063,None,0.45549798011779785,,,,,,,8012,001,16,2021_Nov_08_1449,task-switching-replication,2021.2.3,59.99876978535615,
2,9,experiment,16,sitting,switch,congruant,dashed,square,yellow,stimuli/dashed-rectangle.png,stimuli/yellow-square.png,1,,,,,,,,,,,,,,,,,,,,,,,,,0,0,0,0,1,0,1,0,0,8,8,8,,,,,,,,,,,,,,,,,,,,,,,,,,,,,,,,,,,,,,,,,,,,,,,,,,,,,,,,,,,,,,,1636404961.4792132,,,,,,,,,,436.32176089286804,None,,,,,,,,,,,,,,,,,,,,,,,,,,,,,,,,,,,,,,,,,,434.2462248802185,None,435.23608589172363,None,1,1,435.23608589172363,None,0.9392051696777344,,,,,,,8012,001,16,2021_Nov_08_1449,task-switching-replication,2021.2.3,59.99876978535615,
2,10,experiment,16,sitting,noswitch,incongruant,dashed,triangle,blue,stimuli/dashed-rectangle.png,stimuli/blue-triangle.png,2,,,,,,,,,,,,,,,,,,,,,,,,,0,0,0,0,1,0,1,0,0,9,9,9,,,,,,,,,,,,,,,,,,,,,,,,,,,,,,,,,,,,,,,,,,,,,,,,,,,,,,,,,,,,,,,1636404963.5448327,,,,,,,,,,438.3869400024414,None,,,,,,,,,,,,,,,,,,,,,,,,,,,,,,,,,,,,,,,,,,436.5509750843048,None,437.5395679473877,None,2,1,437.5395679473877,None,0.7466411590576172,,,,,,,8012,001,16,2021_Nov_08_1449,task-switching-replication,2021.2.3,59.99876978535615,
2,11,experiment,16,sitting,switch,congruant,solid,triangle,yellow,stimuli/solid-rectangle.png,stimuli/yellow-triangle.png,2,,,,,,,,,,,,,,,,,,,,,,,,,0,0,0,0,1,0,1,0,0,10,10,10,,,,,,,,,,,,,,,,,,,,,,,,,,,,,,,,,,,,,,,,,,,,,,,,,,,,,,,,,,,,,,,1636404965.8481863,,,,,,,,,,440.6911129951477,None,,,,,,,,,,,,,,,,,,,,,,,,,,,,,,,,,,,,,,,,,,438.6160719394684,None,439.6054060459137,None,2,1,439.6054060459137,None,0.9939348697662354,,,,,,,8012,001,16,2021_Nov_08_1449,task-switching-replication,2021.2.3,59.99876978535615,
2,12,experiment,16,sitting,noswitch,incongruant,solid,square,yellow,stimuli/solid-rectangle.png,stimuli/yellow-square.png,1,,,,,,,,,,,,,,,,,,,,,,,,,0,0,0,0,1,0,1,0,0,11,11,11,,,,,,,,,,,,,,,,,,,,,,,,,,,,,,,,,,,,,,,,,,,,,,,,,,,,,,,,,,,,,,,1636404967.9758625,,,,,,,,,,442.81770491600037,None,,,,,,,,,,,,,,,,,,,,,,,,,,,,,,,,,,,,,,,,,,440.92045307159424,None,441.91044187545776,None,1,1,441.91044187545776,None,0.7631800174713135,,,,,,,8012,001,16,2021_Nov_08_1449,task-switching-replication,2021.2.3,59.99876978535615,
2,13,experiment,16,sitting,noswitch,incongruant,solid,triangle,blue,stimuli/solid-rectangle.png,stimuli/blue-triangle.png,2,,,,,,,,,,,,,,,,,,,,,,,,,0,0,0,0,1,0,1,0,0,12,12,12,,,,,,,,,,,,,,,,,,,,,,,,,,,,,,,,,,,,,,,,,,,,,,,,,,,,,,,,,,,,,,,1636404970.4563487,,,,,,,,,,445.2988519668579,None,,,,,,,,,,,,,,,,,,,,,,,,,,,,,,,,,,,,,,,,,,443.04729104042053,None,444.03578305244446,None,2,1,444.03578305244446,None,1.153210163116455,,,,,,,8012,001,16,2021_Nov_08_1449,task-switching-replication,2021.2.3,59.99876978535615,
2,14,experiment,16,sitting,switch,congruant,dashed,square,blue,stimuli/dashed-rectangle.png,stimuli/blue-square.png,2,,,,,,,,,,,,,,,,,,,,,,,,,0,0,0,0,1,0,1,0,0,13,13,13,,,,,0,0,0,0,,,,,,,,,,,,,,,,,,,,,,,,,,,,,,,,,,,,,,,,,,,,,,,,,,,,,,,1636404973.0008345,,,,,,,,,,,,,,,,,,,,,,,,,,,,,,,,,,,,447.8152575492859,448.8337359428406,447.8475339412689,None,,,,,,,,,,,,,,445.5279629230499,None,446.517117023468,None,1,0,446.517117023468,None,1.1962950229644775,,,,,,,8012,001,16,2021_Nov_08_1449,task-switching-replication,2021.2.3,59.99876978535615,
2,14,experiment,16,sitting,switch,congruant,dashed,square,blue,stimuli/dashed-rectangle.png,stimuli/blue-square.png,2,,,,,,,,,,,,,,,,,,,,,,,,,0,0,0,0,1,0,1,0,0,13,13,13,,,,,,,,,,,,,,,,,,,,,,,,,,,,,,,,,,,,,,,,,,,,,,,,,,,,,,,,,,,,,,,,,,,,,,,,,452.84519600868225,None,,,,,,,,,,,,,,,,,,,,,,,,,,,,,,,,,,,,,,,,,,,,,,,,,,,,,,,,,8012,001,16,2021_Nov_08_1449,task-switching-replication,2021.2.3,59.99876978535615,
2,15,experiment,16,sitting,switch,congruant,solid,triangle,blue,stimuli/solid-rectangle.png,stimuli/blue-triangle.png,2,,,,,,,,,,,,,,,,,,,,,,,,,0,0,0,0,1,0,1,0,0,14,14,14,0,0,0,0,,,,,,,,,,,,,,,,,,,,,,,,,,,,,,,,,,,,,,,,,,,,,,,,,,,,,,,,,,,1636404980.4835434,,,,,,,,,,,,455.2979063987732,456.316880941391,455.33097195625305,None,,,,,,,,,,,,,,,,,,,,,,,,,,,,,,,,,,,,,,453.0743980407715,None,454.0633580684662,None,1,0,454.0633580684662,None,1.164815902709961,,,,,,,8012,001,16,2021_Nov_08_1449,task-switching-replication,2021.2.3,59.99876978535615,
2,15,experiment,16,sitting,switch,congruant,solid,triangle,blue,stimuli/solid-rectangle.png,stimuli/blue-triangle.png,2,,,,,,,,,,,,,,,,,,,,,,,,,0,0,0,0,1,0,1,0,0,14,14,14,,,,,,,,,,,,,,,,,,,,,,,,,,,,,,,,,,,,,,,,,,,,,,,,,,,,,,,,,,,,,,,,,,,,,,,,,460.32702589035034,None,,,,,,,,,,,,,,,,,,,,,,,,,,,,,,,,,,,,,,,,,,,,,,,,,,,,,,,,,8012,001,16,2021_Nov_08_1449,task-switching-replication,2021.2.3,59.99876978535615,
2,16,experiment,16,sitting,switch,congruant,dashed,square,blue,stimuli/dashed-rectangle.png,stimuli/blue-square.png,2,,,,,,,,,,,,,,,,,,,,,,,,,0,0,0,0,1,0,1,0,0,15,15,15,,,,,,,,,,,,,,,,,,,,,,,,,,,,,,,,,,,,,,,,,,,,,,,,,,,,,,,,,,,,,,,1636404987.5523117,,,,,,,,,,462.3941900730133,None,,,,,,,,,,,,,,,,,,,,,,,,,,,,,,,,,,,,,,,,,,460.55614399909973,None,461.5447769165039,None,2,1,461.5447769165039,None,0.7006001472473145,,,,,,,8012,001,16,2021_Nov_08_1449,task-switching-replication,2021.2.3,59.99876978535615,
2,17,experiment,16,sitting,noswitch,congruant,dashed,triangle,blue,stimuli/dashed-rectangle.png,stimuli/blue-triangle.png,2,,,,,,,,,,,,,,,,,,,,,,,,,0,0,0,0,1,0,1,0,0,16,16,16,,,,,,,,,,,,,,,,,,,,,,,,,,,,,,,,,,,,,,,,,,,,,,,,,,,,,,,,,,,,,,,1636404989.2028024,,,,,,,,,,464.045401096344,None,,,,,,,,,,,,,,,,,,,,,,,,,,,,,,,,,,,,,,,,,,462.623575925827,None,463.6119999885559,None,2,1,463.6119999885559,None,0.32617998123168945,,,,,,,8012,001,16,2021_Nov_08_1449,task-switching-replication,2021.2.3,59.99876978535615,
2,18,experiment,16,sitting,switch,incongruant,solid,square,blue,stimuli/solid-rectangle.png,stimuli/blue-square.png,1,,,,,,,,,,,,,,,,,,,,,,,,,0,0,0,0,1,0,1,0,0,17,17,17,,,,,,,,,,,,,,,,,,,,,,,,,,,,,,,,,,,,,,,,,,,,,,,,,,,,,,,,,,,,,,,1636404991.2165678,,,,,,,,,,466.0586459636688,None,,,,,,,,,,,,,,,,,,,,,,,,,,,,,,,,,,,,,,,,,,464.27473998069763,None,465.2645208835602,None,1,1,465.2645208835602,None,0.6403779983520508,,,,,,,8012,001,16,2021_Nov_08_1449,task-switching-replication,2021.2.3,59.99876978535615,
2,19,experiment,16,sitting,noswitch,incongruant,solid,triangle,yellow,stimuli/solid-rectangle.png,stimuli/yellow-triangle.png,2,,,,,,,,,,,,,,,,,,,,,,,,,0,0,0,0,1,0,1,0,0,18,18,18,,,,,,,,,,,,,,,,,,,,,,,,,,,,,,,,,,,,,,,,,,,,,,,,,,,,,,,,,,,,,,,1636404993.108376,,,,,,,,,,467.950425863266,None,,,,,,,,,,,,,,,,,,,,,,,,,,,,,,,,,,,,,,,,,,466.2880189418793,None,467.27742290496826,None,2,1,467.27742290496826,None,0.5436961650848389,,,,,,,8012,001,16,2021_Nov_08_1449,task-switching-replication,2021.2.3,59.99876978535615,
2,20,experiment,16,sitting,noswitch,incongruant,solid,square,blue,stimuli/solid-rectangle.png,stimuli/blue-square.png,1,,,,,,,,,,,,,,,,,,,,,,,,,0,0,0,0,1,0,1,0,0,19,19,19,,,,,,,,,,,,,,,,,,,,,,,,,,,,,,,,,,,,,,,,,,,,,,,,,,,,,,,,,,,,,,,1636404995.3591843,,,,,,,,,,470.201171875,None,,,,,,,,,,,,,,,,,,,,,,,,,,,,,,,,,,,,,,,,,,468.1806879043579,None,469.1704959869385,None,1,1,469.1704959869385,None,0.8868310451507568,,,,,,,8012,001,16,2021_Nov_08_1449,task-switching-replication,2021.2.3,59.99876978535615,
2,21,experiment,16,sitting,noswitch,congruant,solid,square,blue,stimuli/solid-rectangle.png,stimuli/blue-square.png,1,,,,,,,,,,,,,,,,,,,,,,,,,0,0,0,0,1,0,1,0,0,20,20,20,,,,,,,,,,,,,,,,,,,,,,,,,,,,,,,,,,,,,,,,,,,,,,,,,,,,,,,,,,,,,,,1636404997.0682244,,,,,,,,,,471.9108109474182,None,,,,,,,,,,,,,,,,,,,,,,,,,,,,,,,,,,,,,,,,,,470.43073987960815,None,471.41801595687866,None,1,1,471.41801595687866,None,0.35005807876586914,,,,,,,8012,001,16,2021_Nov_08_1449,task-switching-replication,2021.2.3,59.99876978535615,
2,22,experiment,16,sitting,noswitch,congruant,solid,square,yellow,stimuli/solid-rectangle.png,stimuli/yellow-square.png,1,,,,,,,,,,,,,,,,,,,,,,,,,0,0,0,0,1,0,1,0,0,21,21,21,,,,,,,,,,,,,,,,,,,,,,,,,,,,,,,,,,,,,,,,,,,,,,,,,,,,,,,,,,,,,,,1636404998.839351,,,,,,,,,,473.6821839809418,None,,,,,,,,,,,,,,,,,,,,,,,,,,,,,,,,,,,,,,,,,,472.14018297195435,None,473.12986493110657,None,1,1,473.12986493110657,None,0.45509886741638184,,,,,,,8012,001,16,2021_Nov_08_1449,task-switching-replication,2021.2.3,59.99876978535615,
2,23,experiment,16,sitting,noswitch,incongruant,solid,triangle,yellow,stimuli/solid-rectangle.png,stimuli/yellow-triangle.png,2,,,,,,,,,,,,,,,,,,,,,,,,,0,0,0,0,1,0,1,0,0,22,22,22,,,,,,,,,,,,,,,,,,,,,,,,,,,,,,,,,,,,,,,,,,,,,,,,,,,,,,,,,,,,,,,1636405000.9104028,,,,,,,,,,475.75244402885437,None,,,,,,,,,,,,,,,,,,,,,,,,,,,,,,,,,,,,,,,,,,473.9111258983612,None,474.900062084198,None,2,1,474.900062084198,None,0.7085769176483154,,,,,,,8012,001,16,2021_Nov_08_1449,task-switching-replication,2021.2.3,59.99876978535615,
2,24,experiment,16,sitting,switch,incongruant,dashed,square,yellow,stimuli/dashed-rectangle.png,stimuli/yellow-square.png,1,,,,,,,,,,,,,,,,,,,,,,,,,0,0,0,0,1,0,1,0,0,23,23,23,,,,,,,,,,,,,,,,,,,,,,,,,,,,,,,,,,,,,,,,,,,,,,,,,,,,,,,,,,,,,,,1636405003.1539023,,,,,,,,,,477.9962508678436,None,,,,,,,,,,,,,,,,,,,,,,,,,,,,,,,,,,,,,,,,,,475.98209500312805,None,476.9707748889923,None,1,1,476.9707748889923,None,0.9183359146118164,,,,,,,8012,001,16,2021_Nov_08_1449,task-switching-replication,2021.2.3,59.99876978535615,
2,25,experiment,16,sitting,switch,incongruant,solid,triangle,blue,stimuli/solid-rectangle.png,stimuli/blue-triangle.png,2,,,,,,,,,,,,,,,,,,,,,,,,,0,0,0,0,1,0,1,0,0,24,24,24,,,,,,,,,,,,,,,,,,,,,,,,,,,,,,,,,,,,,,,,,,,,,,,,,,,,,,,,,,,,,,,1636405005.458148,,,,,,,,,,480.2999949455261,None,,,,,,,,,,,,,,,,,,,,,,,,,,,,,,,,,,,,,,,,,,478.2263798713684,None,479.21535992622375,None,2,1,479.21535992622375,None,0.9889540672302246,,,,,,,8012,001,16,2021_Nov_08_1449,task-switching-replication,2021.2.3,59.99876978535615,
2,26,experiment,16,sitting,switch,incongruant,dashed,square,yellow,stimuli/dashed-rectangle.png,stimuli/yellow-square.png,1,,,,,,,,,,,,,,,,,,,,,,,,,0,0,0,0,1,0,1,0,0,25,25,25,,,,,,,,,,,,,,,,,,,,,,,,,,,,,,,,,,,,,,,,,,,,,,,,,,,,,,,,,,,,,,,1636405007.4065754,,,,,,,,,,482.24877309799194,None,,,,,,,,,,,,,,,,,,,,,,,,,,,,,,,,,,,,,,,,,,480.5292270183563,None,481.5193738937378,None,1,1,481.5193738937378,None,0.6220078468322754,,,,,,,8012,001,16,2021_Nov_08_1449,task-switching-replication,2021.2.3,59.99876978535615,
2,27,experiment,16,sitting,noswitch,congruant,dashed,triangle,yellow,stimuli/dashed-rectangle.png,stimuli/yellow-triangle.png,1,,,,,,,,,,,,,,,,,,,,,,,,,0,0,0,0,1,0,1,0,0,26,26,26,,,,,,,,,,,,,,,,,,,,,,,,,,,,,,,,,,,,,,,,,,,,,,,,,,,,,,,,,,,,,,,1636405009.2367995,,,,,,,,,,484.07952094078064,None,,,,,,,,,,,,,,,,,,,,,,,,,,,,,,,,,,,,,,,,,,482.47782802581787,None,483.46788597106934,None,1,1,483.46788597106934,None,0.5030591487884521,,,,,,,8012,001,16,2021_Nov_08_1449,task-switching-replication,2021.2.3,59.99876978535615,
2,28,experiment,16,sitting,switch,congruant,solid,square,yellow,stimuli/solid-rectangle.png,stimuli/yellow-square.png,1,,,,,,,,,,,,,,,,,,,,,,,,,0,0,0,0,1,0,1,0,0,27,27,27,,,,,,,,,,,,,,,,,,,,,,,,,,,,,,,,,,,,,,,,,,,,,,,,,,,,,,,,,,,,,,,1636405010.9493818,,,,,,,,,,485.79188990592957,None,,,,,,,,,,,,,,,,,,,,,,,,,,,,,,,,,,,,,,,,,,484.308935880661,None,485.298987865448,None,1,1,485.298987865448,None,0.35793089866638184,,,,,,,8012,001,16,2021_Nov_08_1449,task-switching-replication,2021.2.3,59.99876978535615,
2,29,experiment,16,sitting,noswitch,incongruant,solid,triangle,yellow,stimuli/solid-rectangle.png,stimuli/yellow-triangle.png,2,,,,,,,,,,,,,,,,,,,,,,,,,0,0,0,0,1,0,1,0,0,28,28,28,,,,,,,,,,,,,,,,,,,,,,,,,,,,,,,,,,,,,,,,,,,,,,,,,,,,,,,,,,,,,,,1636405012.8405063,,,,,,,,,,487.68223690986633,None,,,,,,,,,,,,,,,,,,,,,,,,,,,,,,,,,,,,,,,,,,486.0212080478668,None,487.0106818675995,None,2,1,487.0106818675995,None,0.5376439094543457,,,,,,,8012,001,16,2021_Nov_08_1449,task-switching-replication,2021.2.3,59.99876978535615,
2,30,experiment,16,sitting,switch,incongruant,dashed,triangle,yellow,stimuli/dashed-rectangle.png,stimuli/yellow-triangle.png,1,,,,,,,,,,,,,,,,,,,,,,,,,0,0,0,0,1,0,1,0,0,29,29,29,,,,,,,,,,,,,,,,,,,,,,,,,,,,,,,,,,,,,,,,,,,,,,,,,,,,,,,,,,,,,,,1636405014.6701581,,,,,,,,,,489.51251888275146,None,,,,,,,,,,,,,,,,,,,,,,,,,,,,,,,,,,,,,,,,,,487.91140389442444,None,488.9011080265045,None,1,1,488.9011080265045,None,0.5111579895019531,,,,,,,8012,001,16,2021_Nov_08_1449,task-switching-replication,2021.2.3,59.99876978535615,
2,31,experiment,16,sitting,noswitch,congruant,dashed,triangle,yellow,stimuli/dashed-rectangle.png,stimuli/yellow-triangle.png,1,,,,,,,,,,,,,,,,,,,,,,,,,0,0,0,0,1,0,1,0,0,30,30,30,,,,,,,,,,,,,,,,,,,,,,,,,,,,,,,,,,,,,,,,,,,,,,,,,,,,,,,,,,,,,,,1636405016.5597446,,,,,,,,,,491.40244698524475,None,,,,,,,,,,,,,,,,,,,,,,,,,,,,,,,,,,,,,,,,,,489.7418110370636,None,490.7311918735504,None,1,1,490.7311918735504,None,0.5348708629608154,,,,,,,8012,001,16,2021_Nov_08_1449,task-switching-replication,2021.2.3,59.99876978535615,
2,32,experiment,16,sitting,switch,incongruant,solid,triangle,blue,stimuli/solid-rectangle.png,stimuli/blue-triangle.png,2,,,,,,,,,,,,,,,,,,,,,,,,,0,0,0,0,1,0,1,0,0,31,31,31,,,,,,,,,,,,,,,,,,,,,,,,,,,,,,,,,,,,,,,,,,,,,,,,,,,,,,,,,,,,,,,1636405018.3951666,,,,,,,,,,493.23698687553406,None,,,,,,,,,,,,,,,,,,,,,,,,,,,,,,,,,,,,,,,,,,491.6316990852356,None,492.62144899368286,None,2,1,492.62144899368286,None,0.4819810390472412,,,,,,,8012,001,16,2021_Nov_08_1449,task-switching-replication,2021.2.3,59.99876978535615,
2,33,experiment,16,sitting,switch,incongruant,dashed,triangle,yellow,stimuli/dashed-rectangle.png,stimuli/yellow-triangle.png,1,,,,,,,,,,,,,,,,,,,,,,,,,0,0,0,0,1,0,1,0,0,32,32,32,,,,,,,,,,,,,,,,,,,,,,,,,,,,,,,,,,,,,,,,,,,,,,,,,,,,,,,,,,,,,,,1636405020.9363716,,,,,,,,,,495.7786428928375,None,,,,,,,,,,,,,,,,,,,,,,,,,,,,,,,,,,,,,,,,,,493.4659869670868,None,494.4565670490265,None,1,1,494.4565670490265,None,1.2171130180358887,,,,,,,8012,001,16,2021_Nov_08_1449,task-switching-replication,2021.2.3,59.99876978535615,
2,34,experiment,16,sitting,switch,congruant,solid,square,blue,stimuli/solid-rectangle.png,stimuli/blue-square.png,1,,,,,,,,,,,,,,,,,,,,,,,,,0,0,0,0,1,0,1,0,0,33,33,33,,,,,,,,,,,,,,,,,,,,,,,,,,,,,,,,,,,,,,,,,,,,,,,,,,,,,,,,,,,,,,,1636405023.064059,,,,,,,,,,497.9068269729614,None,,,,,,,,,,,,,,,,,,,,,,,,,,,,,,,,,,,,,,,,,,496.0082519054413,None,496.99843406677246,None,1,1,496.99843406677246,None,0.7624249458312988,,,,,,,8012,001,16,2021_Nov_08_1449,task-switching-replication,2021.2.3,59.99876978535615,
2,35,experiment,16,sitting,switch,incongruant,dashed,triangle,blue,stimuli/dashed-rectangle.png,stimuli/blue-triangle.png,2,,,,,,,,,,,,,,,,,,,,,,,,,0,0,0,0,1,0,1,0,0,34,34,34,,,,,,,,,,,,,,,,,,,,,,,,,,,,,,,,,,,,,,,,,,,,,,,,,,,,,,,,,,,,,,,1636405025.0150695,,,,,,,,,,499.8573498725891,None,,,,,,,,,,,,,,,,,,,,,,,,,,,,,,,,,,,,,,,,,,498.1362268924713,None,499.1262400150299,None,2,1,499.1262400150299,None,0.5821530818939209,,,,,,,8012,001,16,2021_Nov_08_1449,task-switching-replication,2021.2.3,59.99876978535615,
2,36,experiment,16,sitting,noswitch,incongruant,dashed,square,yellow,stimuli/dashed-rectangle.png,stimuli/yellow-square.png,1,,,,,,,,,,,,,,,,,,,,,,,,,0,0,0,0,1,0,1,0,0,35,35,35,,,,,,,,,,,,,,,,,,,,,,,,,,,,,,,,,,,,,,,,,,,,,,,,,,,,,,,,,,,,,,,1636405026.667808,,,,,,,,,,501.5099709033966,None,,,,,,,,,,,,,,,,,,,,,,,,,,,,,,,,,,,,,,,,,,500.0872480869293,None,501.0762748718262,None,1,1,501.0762748718262,None,0.2848989963531494,,,,,,,8012,001,16,2021_Nov_08_1449,task-switching-replication,2021.2.3,59.99876978535615,
2,37,experiment,16,sitting,noswitch,congruant,dashed,square,yellow,stimuli/dashed-rectangle.png,stimuli/yellow-square.png,1,,,,,,,,,,,,,,,,,,,,,,,,,0,0,0,0,1,0,1,0,0,36,36,36,,,,,,,,,,,,,,,,,,,,,,,,,,,,,,,,,,,,,,,,,,,,,,,,,,,,,,,,,,,,,,,1636405028.6174583,,,,,,,,,,503.46013498306274,None,,,,,,,,,,,,,,,,,,,,,,,,,,,,,,,,,,,,,,,,,,501.7397780418396,None,502.72976088523865,None,1,1,502.72976088523865,None,0.6002418994903564,,,,,,,8012,001,16,2021_Nov_08_1449,task-switching-replication,2021.2.3,59.99876978535615,
2,38,experiment,16,sitting,noswitch,congruant,dashed,triangle,yellow,stimuli/dashed-rectangle.png,stimuli/yellow-triangle.png,1,,,,,,,,,,,,,,,,,,,,,,,,,0,0,0,0,1,0,1,0,0,37,37,37,,,,,,,,,,,,,,,,,,,,,,,,,,,,,,,,,,,,,,,,,,,,,,,,,,,,,,,,,,,,,,,1636405030.862602,,,,,,,,,,505.7052800655365,None,,,,,,,,,,,,,,,,,,,,,,,,,,,,,,,,,,,,,,,,,,503.6890289783478,None,504.67872309684753,None,1,1,504.67872309684753,None,0.9211039543151855,,,,,,,8012,001,16,2021_Nov_08_1449,task-switching-replication,2021.2.3,59.99876978535615,
2,39,experiment,16,sitting,noswitch,incongruant,dashed,square,blue,stimuli/dashed-rectangle.png,stimuli/blue-square.png,2,,,,,,,,,,,,,,,,,,,,,,,,,0,0,0,0,1,0,1,0,0,38,38,38,,,,,,,,,,,,,,,,,,,,,,,,,,,,,,,,,,,,,,,,,,,,,,,,,,,,,,,,,,,,,,,1636405032.8128514,,,,,,,,,,507.65488505363464,None,,,,,,,,,,,,,,,,,,,,,,,,,,,,,,,,,,,,,,,,,,505.9347860813141,None,506.92439007759094,None,2,1,506.92439007759094,None,0.5968830585479736,,,,,,,8012,001,16,2021_Nov_08_1449,task-switching-replication,2021.2.3,59.99876978535615,
2,40,experiment,16,sitting,switch,congruant,solid,triangle,yellow,stimuli/solid-rectangle.png,stimuli/yellow-triangle.png,2,,,,,,,,,,,,,,,,,,,,,,,,,0,0,0,0,1,0,1,0,0,39,39,39,,,,,,,,,,,,,,,,,,,,,,,,,,,,,,,,,,,,,,,,,,,,,,,,,,,,,,,,,,,,,,,1636405034.8785875,,,,,,,,,,509.7211799621582,None,,,,,,,,,,,,,,,,,,,,,,,,,,,,,,,,,,,,,,,,,,507.8837020397186,None,508.8724789619446,None,2,1,508.8724789619446,None,0.7185659408569336,,,,,,,8012,001,16,2021_Nov_08_1449,task-switching-replication,2021.2.3,59.99876978535615,
2,41,experiment,16,sitting,noswitch,congruant,solid,triangle,blue,stimuli/solid-rectangle.png,stimuli/blue-triangle.png,2,,,,,,,,,,,,,,,,,,,,,,,,,0,0,0,0,1,0,1,0,0,40,40,40,,,,,,,,,,,,,,,,,,,,,,,,,,,,,,,,,,,,,,,,,,,,,,,,,,,,,,,,,,,,,,,1636405037.4800432,,,,,,,,,,512.3225688934326,None,,,,,,,,,,,,,,,,,,,,,,,,,,,,,,,,,,,,,,,,,,509.9503378868103,None,510.9406819343567,None,2,1,510.9406819343567,None,1.2603647708892822,,,,,,,8012,001,16,2021_Nov_08_1449,task-switching-replication,2021.2.3,59.99876978535615,
2,42,experiment,16,sitting,switch,congruant,dashed,triangle,blue,stimuli/dashed-rectangle.png,stimuli/blue-triangle.png,2,,,,,,,,,,,,,,,,,,,,,,,,,0,0,0,0,1,0,1,0,0,41,41,41,,,,,,,,,,,,,,,,,,,,,,,,,,,,,,,,,,,,,,,,,,,,,,,,,,,,,,,,,,,,,,,1636405039.3699422,,,,,,,,,,514.2126059532166,None,,,,,,,,,,,,,,,,,,,,,,,,,,,,,,,,,,,,,,,,,,512.5520250797272,None,513.541934967041,None,2,1,513.541934967041,None,0.5791521072387695,,,,,,,8012,001,16,2021_Nov_08_1449,task-switching-replication,2021.2.3,59.99876978535615,
2,43,experiment,16,sitting,switch,incongruant,solid,square,blue,stimuli/solid-rectangle.png,stimuli/blue-square.png,1,,,,,,,,,,,,,,,,,,,,,,,,,0,0,0,0,1,0,1,0,0,42,42,42,,,,,,,,,,,,,,,,,,,,,,,,,,,,,,,,,,,,,,,,,,,,,,,,,,,,,,,,,,,,,,,1636405041.739878,,,,,,,,,,516.5818140506744,None,,,,,,,,,,,,,,,,,,,,,,,,,,,,,,,,,,,,,,,,,,514.442085981369,None,515.4324879646301,None,1,1,515.4324879646301,None,1.0056378841400146,,,,,,,8012,001,16,2021_Nov_08_1449,task-switching-replication,2021.2.3,59.99876978535615,
2,44,experiment,16,sitting,switch,incongruant,dashed,square,blue,stimuli/dashed-rectangle.png,stimuli/blue-square.png,2,,,,,,,,,,,,,,,,,,,,,,,,,0,0,0,0,1,0,1,0,0,43,43,43,,,,,,,,,,,,,,,,,,,,,,,,,,,,,,,,,,,,,,,,,,,,,,,,,,,,,,,,,,,,,,,1636405044.103822,,,,,,,,,,518.9461600780487,None,,,,,,,,,,,,,,,,,,,,,,,,,,,,,,,,,,,,,,,,,,516.8114519119263,None,517.8014440536499,None,2,1,517.8014440536499,None,1.0539069175720215,,,,,,,8012,001,16,2021_Nov_08_1449,task-switching-replication,2021.2.3,59.99876978535615,
2,45,experiment,16,sitting,noswitch,congruant,dashed,triangle,blue,stimuli/dashed-rectangle.png,stimuli/blue-triangle.png,2,,,,,,,,,,,,,,,,,,,,,,,,,0,0,0,0,1,0,1,0,0,44,44,44,,,,,,,,,,,,,,,,,,,,,,,,,,,,,,,,,,,,,,,,,,,,,,,,,,,,,,,,,,,,,,,1636405046.1122797,,,,,,,,,,520.9550909996033,None,,,,,,,,,,,,,,,,,,,,,,,,,,,,,,,,,,,,,,,,,,519.1756689548492,None,520.1655099391937,None,2,1,520.1655099391937,None,0.6903719902038574,,,,,,,8012,001,16,2021_Nov_08_1449,task-switching-replication,2021.2.3,59.99876978535615,
2,46,experiment,16,sitting,switch,incongruant,solid,square,blue,stimuli/solid-rectangle.png,stimuli/blue-square.png,1,,,,,,,,,,,,,,,,,,,,,,,,,0,0,0,0,1,0,1,0,0,45,45,45,,,,,,,,,,,,,,,,,,,,,,,,,,,,,,,,,,,,,,,,,,,,,,,,,,,,,,,,,,,,,,,1636405048.536819,,,,,,,,,,523.3794059753418,None,,,,,,,,,,,,,,,,,,,,,,,,,,,,,,,,,,,,,,,,,,521.1845819950104,None,522.1749179363251,None,1,1,522.1749179363251,None,1.0961999893188477,,,,,,,8012,001,16,2021_Nov_08_1449,task-switching-replication,2021.2.3,59.99876978535615,
2,47,experiment,16,sitting,noswitch,congruant,solid,square,yellow,stimuli/solid-rectangle.png,stimuli/yellow-square.png,1,,,,,,,,,,,,,,,,,,,,,,,,,0,0,0,0,1,0,1,0,0,46,46,46,,,,,,,,,,,,,,,,,,,,,,,,,,,,,,,,,,,,,,,,,,,,,,,,,,,,,,,,,,,,,,,1636405050.4253201,,,,,,,,,,525.2678830623627,None,,,,,,,,,,,,,,,,,,,,,,,,,,,,,,,,,,,,,,,,,,523.60861992836,None,524.5972418785095,None,1,1,524.5972418785095,None,0.5256068706512451,,,,,,,8012,001,16,2021_Nov_08_1449,task-switching-replication,2021.2.3,59.99876978535615,
2,48,experiment,16,sitting,switch,congruant,dashed,triangle,yellow,stimuli/dashed-rectangle.png,stimuli/yellow-triangle.png,1,,,,,,,,,,,,,,,,,,,,,,,,,0,0,0,0,1,0,1,0,0,47,47,47,,,,,,,,,,,,,,,,,,,,,,,,,,,,,,,,,,,,,,,,,,,,,,,,,,,,,,,,,,,,,,,1636405052.7283137,,,,,,,,,,527.5709149837494,None,,,,,,,,,,,,,,,,,,,,,,,,,,,,,,,,,,,,,,,,,,525.4965538978577,None,526.4855210781097,None,1,1,526.4855210781097,None,0.9422140121459961,,,,,,,8012,001,16,2021_Nov_08_1449,task-switching-replication,2021.2.3,59.99876978535615,
2,49,experiment,16,sitting,noswitch,incongruant,dashed,square,blue,stimuli/dashed-rectangle.png,stimuli/blue-square.png,2,,,,,,,,,,,,,,,,,,,,,,,,,0,0,0,0,1,0,1,0,0,48,48,48,,,,,,,,,,,,,,,,,,,,,,,,,,,,,,,,,,,,,,,,,,,,,,,,,,,,,,,,,,,,,,,1636405054.9737322,,,,,,,,,,529.8164858818054,None,,,,,,,,,,,,,,,,,,,,,,,,,,,,,,,,,,,,,,,,,,527.8002059459686,None,528.7899448871613,None,2,1,528.7899448871613,None,0.9170970916748047,,,,,,,8012,001,16,2021_Nov_08_1449,task-switching-replication,2021.2.3,59.99876978535615,
,,,16,,,,,,,,,,,,,,,,,,,,,,,,,,,,,,,,,,0,0,0,0,1,0,1,0,,,,,,,,,,,,,,,,,,,,,,,,,,,,,,,,,,,,,,,,,,,,,,,,,,,,,,,,,,,,,,,,,,,,,,,,,,,,,,,,,,,,,,,,,,,,,,,,,,,,,,,,,,,,,,,,,,,,,,,,,,,,,,,,,,,,,,,8012,001,16,2021_Nov_08_1449,task-switching-replication,2021.2.3,59.99876978535615,
3,1,experiment,16,sitting,buffer,buffer,dashed,square,yellow,stimuli/dashed-rectangle.png,stimuli/yellow-square.png,1,,,,,,,,,,,,,,,,,,,,,,,,,0,0,0,0,2,0,2,0,0,0,0,0,,,,,0,0,0,0,,,,,,,,,,,,,,,,,,,,,,,,,,,,,,,,,,,,,,,,,,,,,,,,,,,,,,,1636405082.5100567,,,,,,,,,,,,,,,,,,,,,,,,,,,,,,,,,,,,557.3244295120239,558.3436379432678,557.3585000038147,None,,530.0462849140167,None,2,4.077640056610107,530.0462849140167,None,534.2478358745575,None,2,20.76890802383423,534.2478358745575,None,555.1582460403442,None,556.1480538845062,None,2,0,556.1480538845062,None,1.065652847290039,,,,,,,8012,001,16,2021_Nov_08_1449,task-switching-replication,2021.2.3,59.99876978535615,
3,1,experiment,16,sitting,buffer,buffer,dashed,square,yellow,stimuli/dashed-rectangle.png,stimuli/yellow-square.png,1,,,,,,,,,,,,,,,,,,,,,,,,,0,0,0,0,2,0,2,0,0,0,0,0,,,,,,,,,,,,,,,,,,,,,,,,,,,,,,,,,,,,,,,,,,,,,,,,,,,,,,,,,,,,,,,,,,,,,,,,,562.3536779880524,None,,,,,,,,,,,,,,,,,,,,,,,,,,,,,,,,,,,,,,,,,,,,,,,,,,,,,,,,,8012,001,16,2021_Nov_08_1449,task-switching-replication,2021.2.3,59.99876978535615,
3,2,experiment,16,sitting,noswitch,congruant,dashed,triangle,yellow,stimuli/dashed-rectangle.png,stimuli/yellow-triangle.png,1,,,,,,,,,,,,,,,,,,,,,,,,,0,0,0,0,2,0,2,0,0,1,1,1,,,,,,,,,,,,,,,,,,,,,,,,,,,,,,,,,,,,,,,,,,,,,,,,,,,,,,,,,,,,,,,1636405089.4062245,,,,,,,,,,564.2479259967804,None,,,,,,,,,,,,,,,,,,,,,,,,,,,,,,,,,,,,,,,,,,562.5829229354858,None,563.5723190307617,None,1,1,563.5723190307617,None,0.551455020904541,,,,,,,8012,001,16,2021_Nov_08_1449,task-switching-replication,2021.2.3,59.99876978535615,
3,3,experiment,16,sitting,noswitch,incongruant,dashed,triangle,blue,stimuli/dashed-rectangle.png,stimuli/blue-triangle.png,2,,,,,,,,,,,,,,,,,,,,,,,,,0,0,0,0,2,0,2,0,0,2,2,2,,,,,,,,,,,,,,,,,,,,,,,,,,,,,,,,,,,,,,,,,,,,,,,,,,,,,,,,,,,,,,,1636405091.178902,,,,,,,,,,566.0208389759064,None,,,,,,,,,,,,,,,,,,,,,,,,,,,,,,,,,,,,,,,,,,564.4771349430084,None,565.4664900302887,None,2,1,565.4664900302887,None,0.40548110008239746,,,,,,,8012,001,16,2021_Nov_08_1449,task-switching-replication,2021.2.3,59.99876978535615,
3,4,experiment,16,sitting,switch,incongruant,solid,square,yellow,stimuli/solid-rectangle.png,stimuli/yellow-square.png,1,,,,,,,,,,,,,,,,,,,,,,,,,0,0,0,0,2,0,2,0,0,3,3,3,,,,,,,,,,,,,,,,,,,,,,,,,,,,,,,,,,,,,,,,,,,,,,,,,,,,,,,,,,,,,,,1636405093.3048742,,,,,,,,,,568.1475529670715,None,,,,,,,,,,,,,,,,,,,,,,,,,,,,,,,,,,,,,,,,,,566.2509200572968,None,567.2400989532471,None,1,1,567.2400989532471,None,0.790410041809082,,,,,,,8012,001,16,2021_Nov_08_1449,task-switching-replication,2021.2.3,59.99876978535615,
3,5,experiment,16,sitting,noswitch,congruant,solid,square,yellow,stimuli/solid-rectangle.png,stimuli/yellow-square.png,1,,,,,,,,,,,,,,,,,,,,,,,,,0,0,0,0,2,0,2,0,0,4,4,4,,,,,,,,,,,,,,,,,,,,,,,,,,,,,,,,,,,,,,,,,,,,,,,,,,,,,,,,,,,,,,,1636405095.430856,,,,,,,,,,570.2735249996185,None,,,,,,,,,,,,,,,,,,,,,,,,,,,,,,,,,,,,,,,,,,568.3766338825226,None,569.3655688762665,None,1,1,569.3655688762665,None,0.7591159343719482,,,,,,,8012,001,16,2021_Nov_08_1449,task-switching-replication,2021.2.3,59.99876978535615,
3,6,experiment,16,sitting,switch,incongruant,dashed,square,blue,stimuli/dashed-rectangle.png,stimuli/blue-square.png,2,,,,,,,,,,,,,,,,,,,,,,,,,0,0,0,0,2,0,2,0,0,5,5,5,,,,,,,,,,,,,,,,,,,,,,,,,,,,,,,,,,,,,,,,,,,,,,,,,,,,,,,,,,,,,,,1636405097.6787324,,,,,,,,,,572.5207788944244,None,,,,,,,,,,,,,,,,,,,,,,,,,,,,,,,,,,,,,,,,,,570.503310918808,None,571.4936039447784,None,2,1,571.4936039447784,None,0.8930761814117432,,,,,,,8012,001,16,2021_Nov_08_1449,task-switching-replication,2021.2.3,59.99876978535615,
3,7,experiment,16,sitting,switch,congruant,solid,triangle,blue,stimuli/solid-rectangle.png,stimuli/blue-triangle.png,2,,,,,,,,,,,,,,,,,,,,,,,,,0,0,0,0,2,0,2,0,0,6,6,6,0,0,0,0,,,,,,,,,,,,,,,,,,,,,,,,,,,,,,,,,,,,,,,,,,,,,,,,,,,,,,,,,,,1636405100.3967063,,,,,,,,,,,,575.226849412918,576.2457220554352,575.2577180862427,None,,,,,,,,,,,,,,,,,,,,,,,,,,,,,,,,,,,,,,572.7502040863037,None,573.7401239871979,None,None,0,573.7401239871979,None,,,,,,,,8012,001,16,2021_Nov_08_1449,task-switching-replication,2021.2.3,59.99876978535615,
3,7,experiment,16,sitting,switch,congruant,solid,triangle,blue,stimuli/solid-rectangle.png,stimuli/blue-triangle.png,2,,,,,,,,,,,,,,,,,,,,,,,,,0,0,0,0,2,0,2,0,0,6,6,6,,,,,,,,,,,,,,,,,,,,,,,,,,,,,,,,,,,,,,,,,,,,,,,,,,,,,,,,,,,,,,,,,,,,,,,,,580.2567439079285,None,,,,,,,,,,,,,,,,,,,,,,,,,,,,,,,,,,,,,,,,,,,,,,,,,,,,,,,,,8012,001,16,2021_Nov_08_1449,task-switching-replication,2021.2.3,59.99876978535615,
3,8,experiment,16,sitting,switch,congruant,dashed,square,blue,stimuli/dashed-rectangle.png,stimuli/blue-square.png,2,,,,,,,,,,,,,,,,,,,,,,,,,0,0,0,0,2,0,2,0,0,7,7,7,,,,,,,,,,,,,,,,,,,,,,,,,,,,,,,,,,,,,,,,,,,,,,,,,,,,,,,,,,,,,,,1636405107.363813,,,,,,,,,,582.2070019245148,None,,,,,,,,,,,,,,,,,,,,,,,,,,,,,,,,,,,,,,,,,,580.4860100746155,None,581.4761440753937,None,2,1,581.4761440753937,None,0.5804848670959473,,,,,,,8012,001,16,2021_Nov_08_1449,task-switching-replication,2021.2.3,59.99876978535615,
3,9,experiment,16,sitting,noswitch,incongruant,dashed,square,yellow,stimuli/dashed-rectangle.png,stimuli/yellow-square.png,1,,,,,,,,,,,,,,,,,,,,,,,,,0,0,0,0,2,0,2,0,0,8,8,8,,,,,,,,,,,,,,,,,,,,,,,,,,,,,,,,,,,,,,,,,,,,,,,,,,,,,,,,,,,,,,,1636405109.609432,,,,,,,,,,584.451621055603,None,,,,,,,,,,,,,,,,,,,,,,,,,,,,,,,,,,,,,,,,,,582.4363470077515,None,583.4257309436798,None,1,1,583.4257309436798,None,0.9107890129089355,,,,,,,8012,001,16,2021_Nov_08_1449,task-switching-replication,2021.2.3,59.99876978535615,
3,10,experiment,16,sitting,switch,incongruant,solid,triangle,yellow,stimuli/solid-rectangle.png,stimuli/yellow-triangle.png,2,,,,,,,,,,,,,,,,,,,,,,,,,0,0,0,0,2,0,2,0,0,9,9,9,,,,,,,,,,,,,,,,,,,,,,,,,,,,,,,,,,,,,,,,,,,,,,,,,,,,,,,,,,,,,,,1636405111.6804476,,,,,,,,,,586.5222249031067,None,,,,,,,,,,,,,,,,,,,,,,,,,,,,,,,,,,,,,,,,,,584.6807839870453,None,585.671618938446,None,2,1,585.671618938446,None,0.7269620895385742,,,,,,,8012,001,16,2021_Nov_08_1449,task-switching-replication,2021.2.3,59.99876978535615,
3,11,experiment,16,sitting,noswitch,congruant,solid,triangle,blue,stimuli/solid-rectangle.png,stimuli/blue-triangle.png,2,,,,,,,,,,,,,,,,,,,,,,,,,0,0,0,0,2,0,2,0,0,10,10,10,,,,,,,,,,,,,,,,,,,,,,,,,,,,,,,,,,,,,,,,,,,,,,,,,,,,,,,,,,,,,,,1636405114.0449116,,,,,,,,,,588.8875710964203,None,,,,,,,,,,,,,,,,,,,,,,,,,,,,,,,,,,,,,,,,,,586.7518239021301,None,587.742429971695,None,2,1,587.742429971695,None,1.0311851501464844,,,,,,,8012,001,16,2021_Nov_08_1449,task-switching-replication,2021.2.3,59.99876978535615,
3,12,experiment,16,sitting,noswitch,incongruant,solid,square,yellow,stimuli/solid-rectangle.png,stimuli/yellow-square.png,1,,,,,,,,,,,,,,,,,,,,,,,,,0,0,0,0,2,0,2,0,0,11,11,11,,,,,,,,,,,,,,,,,,,,,,,,,,,,,,,,,,,,,,,,,,,,,,,,,,,,,,,,,,,,,,,1636405115.9978921,,,,,,,,,,590.8397800922394,None,,,,,,,,,,,,,,,,,,,,,,,,,,,,,,,,,,,,,,,,,,589.11696600914,None,590.1066529750824,None,1,1,590.1066529750824,None,0.5997829437255859,,,,,,,8012,001,16,2021_Nov_08_1449,task-switching-replication,2021.2.3,59.99876978535615,
3,13,experiment,16,sitting,switch,congruant,dashed,square,yellow,stimuli/dashed-rectangle.png,stimuli/yellow-square.png,1,,,,,,,,,,,,,,,,,,,,,,,,,0,0,0,0,2,0,2,0,0,12,12,12,,,,,,,,,,,,,,,,,,,,,,,,,,,,,,,,,,,,,,,,,,,,,,,,,,,,,,,,,,,,,,,1636405118.4791353,,,,,,,,,,593.3219110965729,None,,,,,,,,,,,,,,,,,,,,,,,,,,,,,,,,,,,,,,,,,,591.0693349838257,None,592.0588278770447,None,1,1,592.0588278770447,None,1.1587169170379639,,,,,,,8012,001,16,2021_Nov_08_1449,task-switching-replication,2021.2.3,59.99876978535615,
3,14,experiment,16,sitting,noswitch,congruant,dashed,triangle,yellow,stimuli/dashed-rectangle.png,stimuli/yellow-triangle.png,1,,,,,,,,,,,,,,,,,,,,,,,,,0,0,0,0,2,0,2,0,0,13,13,13,,,,,,,,,,,,,,,,,,,,,,,,,,,,,,,,,,,,,,,,,,,,,,,,,,,,,,,,,,,,,,,1636405120.3096378,,,,,,,,,,595.1523840427399,None,,,,,,,,,,,,,,,,,,,,,,,,,,,,,,,,,,,,,,,,,,593.5508890151978,None,594.5404679775238,None,1,1,594.5404679775238,None,0.4859640598297119,,,,,,,8012,001,16,2021_Nov_08_1449,task-switching-replication,2021.2.3,59.99876978535615,
3,15,experiment,16,sitting,switch,congruant,solid,square,blue,stimuli/solid-rectangle.png,stimuli/blue-square.png,1,,,,,,,,,,,,,,,,,,,,,,,,,0,0,0,0,2,0,2,0,0,14,14,14,,,,,,,,,,,,,,,,,,,,,,,,,,,,,,,,,,,,,,,,,,,,,,,,,,,,,,,,,,,,,,,1636405122.911933,,,,,,,,,,597.754518032074,None,,,,,,,,,,,,,,,,,,,,,,,,,,,,,,,,,,,,,,,,,,595.3816199302673,None,596.3714530467987,None,1,1,596.3714530467987,None,1.2399508953094482,,,,,,,8012,001,16,2021_Nov_08_1449,task-switching-replication,2021.2.3,59.99876978535615,
3,16,experiment,16,sitting,switch,congruant,dashed,triangle,yellow,stimuli/dashed-rectangle.png,stimuli/yellow-triangle.png,1,,,,,,,,,,,,,,,,,,,,,,,,,0,0,0,0,2,0,2,0,0,15,15,15,,,,,0,0,0,0,,,,,,,,,,,,,,,,,,,,,,,,,,,,,,,,,,,,,,,,,,,,,,,,,,,,,,,1636405125.4558914,,,,,,,,,,,,,,,,,,,,,,,,,,,,,,,,,,,,600.2703325748444,601.3222579956055,600.3026769161224,None,,,,,,,,,,,,,,597.9835960865021,None,598.9734539985657,None,2,0,598.9734539985657,None,1.1804230213165283,,,,,,,8012,001,16,2021_Nov_08_1449,task-switching-replication,2021.2.3,59.99876978535615,
3,16,experiment,16,sitting,switch,congruant,dashed,triangle,yellow,stimuli/dashed-rectangle.png,stimuli/yellow-triangle.png,1,,,,,,,,,,,,,,,,,,,,,,,,,0,0,0,0,2,0,2,0,0,15,15,15,,,,,,,,,,,,,,,,,,,,,,,,,,,,,,,,,,,,,,,,,,,,,,,,,,,,,,,,,,,,,,,,,,,,,,,,,605.2984030246735,None,,,,,,,,,,,,,,,,,,,,,,,,,,,,,,,,,,,,,,,,,,,,,,,,,,,,,,,,,8012,001,16,2021_Nov_08_1449,task-switching-replication,2021.2.3,59.99876978535615,
3,17,experiment,16,sitting,noswitch,incongruant,dashed,triangle,blue,stimuli/dashed-rectangle.png,stimuli/blue-triangle.png,2,,,,,,,,,,,,,,,,,,,,,,,,,0,0,0,0,2,0,2,0,0,16,16,16,,,,,,,,,,,,,,,,,,,,,,,,,,,,,,,,,,,,,,,,,,,,,,,,,,,,,,,,,,,,,,,1636405132.405448,,,,,,,,,,607.2481460571289,None,,,,,,,,,,,,,,,,,,,,,,,,,,,,,,,,,,,,,,,,,,605.527421951294,None,606.5176329612732,None,2,1,606.5176329612732,None,0.6170511245727539,,,,,,,8012,001,16,2021_Nov_08_1449,task-switching-replication,2021.2.3,59.99876978535615,
3,18,experiment,16,sitting,switch,incongruant,solid,square,blue,stimuli/solid-rectangle.png,stimuli/blue-square.png,1,,,,,,,,,,,,,,,,,,,,,,,,,0,0,0,0,2,0,2,0,0,17,17,17,,,,,,,,,,,,,,,,,,,,,,,,,,,,,,,,,,,,,,,,,,,,,,,,,,,,,,,,,,,,,,,1636405134.893176,,,,,,,,,,609.7352259159088,None,,,,,,,,,,,,,,,,,,,,,,,,,,,,,,,,,,,,,,,,,,607.4790210723877,None,608.4677500724792,None,1,1,608.4677500724792,None,1.1088430881500244,,,,,,,8012,001,16,2021_Nov_08_1449,task-switching-replication,2021.2.3,59.99876978535615,
3,19,experiment,16,sitting,noswitch,congruant,solid,square,blue,stimuli/solid-rectangle.png,stimuli/blue-square.png,1,,,,,,,,,,,,,,,,,,,,,,,,,0,0,0,0,2,0,2,0,0,18,18,18,,,,,,,,,,,,,,,,,,,,,,,,,,,,,,,,,,,,,,,,,,,,,,,,,,,,,,,,,,,,,,,1636405136.841937,,,,,,,,,,611.6844758987427,None,,,,,,,,,,,,,,,,,,,,,,,,,,,,,,,,,,,,,,,,,,609.9647700786591,None,610.9545888900757,None,1,1,610.9545888900757,None,0.5858709812164307,,,,,,,8012,001,16,2021_Nov_08_1449,task-switching-replication,2021.2.3,59.99876978535615,
3,20,experiment,16,sitting,noswitch,congruant,solid,square,yellow,stimuli/solid-rectangle.png,stimuli/yellow-square.png,1,,,,,,,,,,,,,,,,,,,,,,,,,0,0,0,0,2,0,2,0,0,19,19,19,,,,,,,,,,,,,,,,,,,,,,,,,,,,,,,,,,,,,,,,,,,,,,,,,,,,,,,,,,,,,,,1636405138.4956572,,,,,,,,,,613.338173866272,None,,,,,,,,,,,,,,,,,,,,,,,,,,,,,,,,,,,,,,,,,,611.9139239788055,None,612.904296875,None,1,1,612.904296875,None,0.313126802444458,,,,,,,8012,001,16,2021_Nov_08_1449,task-switching-replication,2021.2.3,59.99876978535615,
3,21,experiment,16,sitting,switch,congruant,dashed,square,yellow,stimuli/dashed-rectangle.png,stimuli/yellow-square.png,1,,,,,,,,,,,,,,,,,,,,,,,,,0,0,0,0,2,0,2,0,0,20,20,20,,,,,,,,,,,,,,,,,,,,,,,,,,,,,,,,,,,,,,,,,,,,,,,,,,,,,,,,,,,,,,,1636405140.3862066,,,,,,,,,,615.2288389205933,None,,,,,,,,,,,,,,,,,,,,,,,,,,,,,,,,,,,,,,,,,,613.5676550865173,None,614.5575139522552,None,1,1,614.5575139522552,None,0.571796178817749,,,,,,,8012,001,16,2021_Nov_08_1449,task-switching-replication,2021.2.3,59.99876978535615,
3,22,experiment,16,sitting,noswitch,incongruant,dashed,square,blue,stimuli/dashed-rectangle.png,stimuli/blue-square.png,2,,,,,,,,,,,,,,,,,,,,,,,,,0,0,0,0,2,0,2,0,0,21,21,21,,,,,,,,,,,,,,,,,,,,,,,,,,,,,,,,,,,,,,,,,,,,,,,,,,,,,,,,,,,,,,,1636405142.0392847,,,,,,,,,,616.8810858726501,None,,,,,,,,,,,,,,,,,,,,,,,,,,,,,,,,,,,,,,,,,,615.4583809375763,None,616.4475948810577,None,2,1,616.4475948810577,None,0.3047158718109131,,,,,,,8012,001,16,2021_Nov_08_1449,task-switching-replication,2021.2.3,59.99876978535615,
3,23,experiment,16,sitting,noswitch,incongruant,dashed,triangle,yellow,stimuli/dashed-rectangle.png,stimuli/yellow-triangle.png,1,,,,,,,,,,,,,,,,,,,,,,,,,0,0,0,0,2,0,2,0,0,22,22,22,,,,,,,,,,,,,,,,,,,,,,,,,,,,,,,,,,,,,,,,,,,,,,,,,,,,,,,,,,,,,,,1636405143.7513564,,,,,,,,,,618.5937769412994,None,,,,,,,,,,,,,,,,,,,,,,,,,,,,,,,,,,,,,,,,,,617.1104950904846,None,618.1007790565491,None,1,1,618.1007790565491,None,0.39182400703430176,,,,,,,8012,001,16,2021_Nov_08_1449,task-switching-replication,2021.2.3,59.99876978535615,
3,24,experiment,16,sitting,noswitch,incongruant,dashed,triangle,blue,stimuli/dashed-rectangle.png,stimuli/blue-triangle.png,2,,,,,,,,,,,,,,,,,,,,,,,,,0,0,0,0,2,0,2,0,0,23,23,23,,,,,,,,,,,,,,,,,,,,,,,,,,,,,,,,,,,,,,,,,,,,,,,,,,,,,,,,,,,,,,,1636405145.463284,,,,,,,,,,620.3050580024719,None,,,,,,,,,,,,,,,,,,,,,,,,,,,,,,,,,,,,,,,,,,618.823294878006,None,619.8127789497375,None,2,1,619.8127789497375,None,0.3682229518890381,,,,,,,8012,001,16,2021_Nov_08_1449,task-switching-replication,2021.2.3,59.99876978535615,
3,25,experiment,16,sitting,noswitch,congruant,dashed,triangle,blue,stimuli/dashed-rectangle.png,stimuli/blue-triangle.png,2,,,,,,,,,,,,,,,,,,,,,,,,,0,0,0,0,2,0,2,0,0,24,24,24,,,,,,,,,,,,,,,,,,,,,,,,,,,,,,,,,,,,,,,,,,,,,,,,,,,,,,,,,,,,,,,1636405147.175432,,,,,,,,,,622.0185458660126,None,,,,,,,,,,,,,,,,,,,,,,,,,,,,,,,,,,,,,,,,,,620.5343959331512,None,621.5243048667908,None,2,1,621.5243048667908,None,0.3681659698486328,,,,,,,8012,001,16,2021_Nov_08_1449,task-switching-replication,2021.2.3,59.99876978535615,
3,26,experiment,16,sitting,switch,congruant,solid,triangle,blue,stimuli/solid-rectangle.png,stimuli/blue-triangle.png,2,,,,,,,,,,,,,,,,,,,,,,,,,0,0,0,0,2,0,2,0,0,25,25,25,,,,,,,,,,,,,,,,,,,,,,,,,,,,,,,,,,,,,,,,,,,,,,,,,,,,,,,,,,,,,,,1636405149.241694,,,,,,,,,,624.0842289924622,None,,,,,,,,,,,,,,,,,,,,,,,,,,,,,,,,,,,,,,,,,,622.2476918697357,None,623.2362010478973,None,2,1,623.2362010478973,None,0.7013208866119385,,,,,,,8012,001,16,2021_Nov_08_1449,task-switching-replication,2021.2.3,59.99876978535615,
3,27,experiment,16,sitting,noswitch,incongruant,solid,square,blue,stimuli/solid-rectangle.png,stimuli/blue-square.png,1,,,,,,,,,,,,,,,,,,,,,,,,,0,0,0,0,2,0,2,0,0,26,26,26,,,,,,,,,,,,,,,,,,,,,,,,,,,,,,,,,,,,,,,,,,,,,,,,,,,,,,,,,,,,,,,1636405150.897031,,,,,,,,,,625.7390480041504,None,,,,,,,,,,,,,,,,,,,,,,,,,,,,,,,,,,,,,,,,,,624.3133900165558,None,625.3033630847931,None,1,1,625.3033630847931,None,0.2921569347381592,,,,,,,8012,001,16,2021_Nov_08_1449,task-switching-replication,2021.2.3,59.99876978535615,
3,28,experiment,16,sitting,noswitch,incongruant,solid,triangle,yellow,stimuli/solid-rectangle.png,stimuli/yellow-triangle.png,2,,,,,,,,,,,,,,,,,,,,,,,,,0,0,0,0,2,0,2,0,0,27,27,27,,,,,,,,,,,,,,,,,,,,,,,,,,,,,,,,,,,,,,,,,,,,,,,,,,,,,,,,,,,,,,,1636405153.141952,,,,,,,,,,627.9839339256287,None,,,,,,,,,,,,,,,,,,,,,,,,,,,,,,,,,,,,,,,,,,625.9684810638428,None,626.9581639766693,None,2,1,626.9581639766693,None,0.920259952545166,,,,,,,8012,001,16,2021_Nov_08_1449,task-switching-replication,2021.2.3,59.99876978535615,
3,29,experiment,16,sitting,noswitch,congruant,solid,triangle,yellow,stimuli/solid-rectangle.png,stimuli/yellow-triangle.png,2,,,,,,,,,,,,,,,,,,,,,,,,,0,0,0,0,2,0,2,0,0,28,28,28,,,,,,,,,,,,,,,,,,,,,,,,,,,,,,,,,,,,,,,,,,,,,,,,,,,,,,,,,,,,,,,1636405154.794726,,,,,,,,,,629.6373419761658,None,,,,,,,,,,,,,,,,,,,,,,,,,,,,,,,,,,,,,,,,,,628.2127909660339,None,629.2032339572906,None,2,1,629.2032339572906,None,0.3022270202636719,,,,,,,8012,001,16,2021_Nov_08_1449,task-switching-replication,2021.2.3,59.99876978535615,
3,30,experiment,16,sitting,noswitch,congruant,solid,triangle,yellow,stimuli/solid-rectangle.png,stimuli/yellow-triangle.png,2,,,,,,,,,,,,,,,,,,,,,,,,,0,0,0,0,2,0,2,0,0,29,29,29,,,,,,,,,,,,,,,,,,,,,,,,,,,,,,,,,,,,,,,,,,,,,,,,,,,,,,,,,,,,,,,1636405156.4472868,,,,,,,,,,631.2899949550629,None,,,,,,,,,,,,,,,,,,,,,,,,,,,,,,,,,,,,,,,,,,629.8665280342102,None,630.8562769889832,None,2,1,630.8562769889832,None,0.3230581283569336,,,,,,,8012,001,16,2021_Nov_08_1449,task-switching-replication,2021.2.3,59.99876978535615,
3,31,experiment,16,sitting,switch,congruant,dashed,square,blue,stimuli/dashed-rectangle.png,stimuli/blue-square.png,2,,,,,,,,,,,,,,,,,,,,,,,,,0,0,0,0,2,0,2,0,0,30,30,30,,,,,,,,,,,,,,,,,,,,,,,,,,,,,,,,,,,,,,,,,,,,,,,,,,,,,,,,,,,,,,,1636405158.2189236,,,,,,,,,,633.0615530014038,None,,,,,,,,,,,,,,,,,,,,,,,,,,,,,,,,,,,,,,,,,,631.5194978713989,None,632.5094270706177,None,2,1,632.5094270706177,None,0.4419128894805908,,,,,,,8012,001,16,2021_Nov_08_1449,task-switching-replication,2021.2.3,59.99876978535615,
3,32,experiment,16,sitting,switch,congruant,solid,triangle,blue,stimuli/solid-rectangle.png,stimuli/blue-triangle.png,2,,,,,,,,,,,,,,,,,,,,,,,,,0,0,0,0,2,0,2,0,0,31,31,31,,,,,,,,,,,,,,,,,,,,,,,,,,,,,,,,,,,,,,,,,,,,,,,,,,,,,,,,,,,,,,,1636405160.228023,,,,,,,,,,635.0705659389496,None,,,,,,,,,,,,,,,,,,,,,,,,,,,,,,,,,,,,,,,,,,633.2910089492798,None,634.2807450294495,None,2,1,634.2807450294495,None,0.648590087890625,,,,,,,8012,001,16,2021_Nov_08_1449,task-switching-replication,2021.2.3,59.99876978535615,
3,33,experiment,16,sitting,switch,incongruant,dashed,triangle,yellow,stimuli/dashed-rectangle.png,stimuli/yellow-triangle.png,1,,,,,,,,,,,,,,,,,,,,,,,,,0,0,0,0,2,0,2,0,0,32,32,32,,,,,,,,,,,,,,,,,,,,,,,,,,,,,,,,,,,,,,,,,,,,,,,,,,,,,,,,,,,,,,,1636405161.8846164,,,,,,,,,,636.726469039917,None,,,,,,,,,,,,,,,,,,,,,,,,,,,,,,,,,,,,,,,,,,635.3003549575806,None,636.2905941009521,None,1,1,636.2905941009521,None,0.3069329261779785,,,,,,,8012,001,16,2021_Nov_08_1449,task-switching-replication,2021.2.3,59.99876978535615,
