blockNum,trialNum,trialType,condition,posture,switchTrialType,congruantTrialType,cueType,shapeType,shapeColor,cueFileName,stimuliFileName,correctAnswer,untimedTrials.thisRepN,untimedTrials.thisTrialN,untimedTrials.thisN,untimedTrials.thisIndex,selectIncorrectResponseSolid1.thisRepN,selectIncorrectResponseSolid1.thisTrialN,selectIncorrectResponseSolid1.thisN,selectIncorrectResponseSolid1.thisIndex,selectIncorrectResponseDashed1.thisRepN,selectIncorrectResponseDashed1.thisTrialN,selectIncorrectResponseDashed1.thisN,selectIncorrectResponseDashed1.thisIndex,timedTrials.thisRepN,timedTrials.thisTrialN,timedTrials.thisN,timedTrials.thisIndex,selectIncorrectResponseSolid2.thisRepN,selectIncorrectResponseSolid2.thisTrialN,selectIncorrectResponseSolid2.thisN,selectIncorrectResponseSolid2.thisIndex,selectTimeoutSolid2.thisRepN,selectTimeoutSolid2.thisTrialN,selectTimeoutSolid2.thisN,selectTimeoutSolid2.thisIndex,selectIncorrectResponseDashed2.thisRepN,selectIncorrectResponseDashed2.thisTrialN,selectIncorrectResponseDashed2.thisN,selectIncorrectResponseDashed2.thisIndex,selectTimeoutDashed2.thisRepN,selectTimeoutDashed2.thisTrialN,selectTimeoutDashed2.thisN,selectTimeoutDashed2.thisIndex,text_3.started,text_3.stopped,key_resp_2.keys,key_resp_2.rt,key_resp_2.started,key_resp_2.stopped,image_4.started,image_4.stopped,key_resp_4.keys,key_resp_4.rt,key_resp_4.started,key_resp_4.stopped,image_5.started,image_5.stopped,key_resp_5.keys,key_resp_5.rt,key_resp_5.started,key_resp_5.stopped,image_6.started,image_6.stopped,key_resp_6.keys,key_resp_6.rt,key_resp_6.started,key_resp_6.stopped,image_7.started,image_7.stopped,key_resp_7.keys,key_resp_7.rt,key_resp_7.started,key_resp_7.stopped,image_8.started,image_8.stopped,key_resp_8.keys,key_resp_8.rt,key_resp_8.started,key_resp_8.stopped,image_9.started,image_9.stopped,key_resp_9.keys,key_resp_9.rt,key_resp_9.started,key_resp_9.stopped,image_10.started,image_10.stopped,key_resp_10.keys,key_resp_10.rt,key_resp_10.started,key_resp_10.stopped,image_11.started,image_11.stopped,key_resp_11.keys,key_resp_11.rt,key_resp_11.started,key_resp_11.stopped,utcTime,cue_untimed_image.started,cue_untimed_image.stopped,stimuli_untimed_image.started,stimuli_untimed_image.stopped,untimed_resp.keys,untimed_resp.corr,untimed_resp.rt,untimed_resp.started,untimed_resp.stopped,text_2.started,text_2.stopped,sound_1.started,sound_1.stopped,image_2.started,image_2.stopped,sound_2.started,sound_2.stopped,image_3.started,image_3.stopped,image_12.started,image_12.stopped,key_resp_12.keys,key_resp_12.rt,key_resp_12.started,key_resp_12.stopped,image_13.started,image_13.stopped,key_resp_13.keys,key_resp_13.rt,key_resp_13.started,key_resp_13.stopped,cue_timed_image.started,cue_timed_image.stopped,stimuli_timed_image.started,stimuli_timed_image.stopped,timed_resp.keys,timed_resp.corr,timed_resp.started,timed_resp.stopped,sound_4.started,sound_4.stopped,image_15.started,image_15.stopped,sound_3.started,sound_3.stopped,image_14.started,image_14.stopped,timed_resp.rt,participant,session,condition,date,expName,psychopyVersion,frameRate,
,,,02,,,,,,,,,,,,,,,,,,,,,,,,,,,,,,,,,,,,,,,,,,9.892024040222168,None,2,4.17289400100708,9.892024040222168,None,,,,,,,,,,,,,,,,,,,,,,,,,,,,,,,,,,,,,,,,,,,,,,,,,,,,,,,,,,,,,,,,,,,,,,,,,,,,,,,,,,,,,,,,,,,,,,,,,,8016,001,02,2021_Nov_09_1059,task-switching-replication,2021.2.3,59.98546952318298,
,,,02,,,,,,,,,,,,,,,,,,,,,,,,,,,,,,,,,,,,,,,,,,,,,,,,14.135334968566895,None,2,16.64125418663025,14.135334968566895,None,,,,,,,,,,,,,,,,,,,,,,,,,,,,,,,,,,,,,,,,,,,,,,,,,,,,,,,,,,,,,,,,,,,,,,,,,,,,,,,,,,,,,,,,,,,,8016,001,02,2021_Nov_09_1059,task-switching-replication,2021.2.3,59.98546952318298,
,,,02,,,,,,,,,,,,,,,,,,,,,,,,,,,,,,,,,,,,,,,,,,,,,,,,,,,,,,30.90926504135132,None,1,1.1170389652252197,30.90926504135132,None,,,,,,,,,,,,,,,,,,,,,,,,,,,,,,,,,,,,,,,,,,,,,,,,,,,,,,,,,,,,,,,,,,,,,,,,,,,,,,,,,,,,,,8016,001,02,2021_Nov_09_1059,task-switching-replication,2021.2.3,59.98546952318298,
,,,02,,,,,,,,,,,,,,,,,,,,,,,,,,,,,,,,,,,,,,,,,,,,,,,,,,,,,,,,,,,,32.11676001548767,None,2,0.4657468795776367,32.11676001548767,None,,,,,,,,,,,,,,,,,,,,,,,,,,,,,,,,,,,,,,,,,,,,,,,,,,,,,,,,,,,,,,,,,,,,,,,,,,,,,,,,8016,001,02,2021_Nov_09_1059,task-switching-replication,2021.2.3,59.98546952318298,
,,,02,,,,,,,,,,,,,,,,,,,,,,,,,,,,,,,,,,,,,,,,,,,,,,,,,,,,,,,,,,,,,,,,,,32.719172954559326,None,2,1.3803539276123047,32.719172954559326,None,,,,,,,,,,,,,,,,,,,,,,,,,,,,,,,,,,,,,,,,,,,,,,,,,,,,,,,,,,,,,,,,,,,,,,,,,,8016,001,02,2021_Nov_09_1059,task-switching-replication,2021.2.3,59.98546952318298,
,,,02,,,,,,,,,,,,,,,,,,,,,,,,,,,,,,,,,,,,,,,,,,,,,,,,,,,,,,,,,,,,,,,,,,,,,,,,34.228742837905884,None,1,0.8458120822906494,34.228742837905884,None,,,,,,,,,,,,,,,,,,,,,,,,,,,,,,,,,,,,,,,,,,,,,,,,,,,,,,,,,,,,,,,,,,,,8016,001,02,2021_Nov_09_1059,task-switching-replication,2021.2.3,59.98546952318298,
,,,02,,,,,,,,,,,,,,,,,,,,,,,,,,,,,,,,,,,,,,,,,,,,,,,,,,,,,,,,,,,,,,,,,,,,,,,,,,,,,,35.195411920547485,None,2,0.37642884254455566,35.195411920547485,None,,,,,,,,,,,,,,,,,,,,,,,,,,,,,,,,,,,,,,,,,,,,,,,,,,,,,,,,,,,,,,8016,001,02,2021_Nov_09_1059,task-switching-replication,2021.2.3,59.98546952318298,
,,,02,,,,,,,,,,,,,,,,,,,,,,,,,,,,,,,,,,,,,,,,,,,,,,,,,,,,,,,,,,,,,,,,,,,,,,,,,,,,,,,,,,,,35.674311876297,None,1,0.5868480205535889,35.674311876297,None,,,,,,,,,,,,,,,,,,,,,,,,,,,,,,,,,,,,,,,,,,,,,,,,,,,,,,,,8016,001,02,2021_Nov_09_1059,task-switching-replication,2021.2.3,59.98546952318298,
,,,02,,,,,,,,,,,,,,,,,,,,,,,,,,,,,,,,,,,,,,,,,,,,,,,,,,,,,,,,,,,,,,,,,,,,,,,,,,,,,,,,,,,,,,,,,,36.33590388298035,None,1,1.0624489784240723,36.33590388298035,None,,,,,,,,,,,,,,,,,,,,,,,,,,,,,,,,,,,,,,,,,,,,,,,,,,8016,001,02,2021_Nov_09_1059,task-switching-replication,2021.2.3,59.98546952318298,
1,1,untimed,02,standing,buffer,buffer,dashed,square,yellow,stimuli/dashed-rectangle.png,stimuli/yellow-square.png,1,0,0,0,0,,,,,,,,,,,,,,,,,,,,,,,,,,,,,,,,,,,,,,,,,,,,,,,,,,,,,,,,,,,,,,,,,,,,,,,,,,,,,,,,,,,1636477233.1654904,37.52221989631653,None,38.526939868927,None,1,1,5.5015130043029785,38.526939868927,None,44.11903500556946,None,,,,,,,,,,,,,,,,,,,,,,,,,,,,,,,,,,,,,,8016,001,02,2021_Nov_09_1059,task-switching-replication,2021.2.3,59.98546952318298,
1,2,untimed,02,standing,switch,incongruant,solid,square,yellow,stimuli/solid-rectangle.png,stimuli/yellow-square.png,2,0,1,1,1,,,,,,,,,,,,,,,,,,,,,,,,,,,,,,,,,,,,,,,,,,,,,,,,,,,,,,,,,,,,,,,,,,,,,,,,,,,,,,,,,,,1636477234.8652415,44.34875988960266,None,45.31961989402771,None,2,1,0.3537919521331787,45.31961989402771,None,45.81741786003113,None,,,,,,,,,,,,,,,,,,,,,,,,,,,,,,,,,,,,,,8016,001,02,2021_Nov_09_1059,task-switching-replication,2021.2.3,59.98546952318298,
1,3,untimed,02,standing,noswitch,incongruant,solid,triangle,blue,stimuli/solid-rectangle.png,stimuli/blue-triangle.png,1,0,2,2,2,0,0,0,0,,,,,,,,,,,,,,,,,,,,,,,,,,,,,,,,,,,,,,,,,,,,,,,,,,,,,,,,,,,,,,,,,,,,,,,,,,,,,,,1636477236.860638,46.04702591896057,None,47.01752686500549,None,2,0,0.6629440784454346,47.01752686500549,None,,,47.78527593612671,48.80698490142822,47.818511962890625,None,,,,,,,,,,,,,,,,,,,,,,,,,,,,,,,,,,8016,001,02,2021_Nov_09_1059,task-switching-replication,2021.2.3,59.98546952318298,
1,3,untimed,02,standing,noswitch,incongruant,solid,triangle,blue,stimuli/solid-rectangle.png,stimuli/blue-triangle.png,1,0,2,2,2,,,,,,,,,,,,,,,,,,,,,,,,,,,,,,,,,,,,,,,,,,,,,,,,,,,,,,,,,,,,,,,,,,,,,,,,,,,,,,,,,,,,,,,,,,,,,52.848613023757935,None,,,,,,,,,,,,,,,,,,,,,,,,,,,,,,,,,,,,,,8016,001,02,2021_Nov_09_1059,task-switching-replication,2021.2.3,59.98546952318298,
1,4,untimed,02,standing,noswitch,congruant,solid,square,blue,stimuli/solid-rectangle.png,stimuli/blue-square.png,1,0,3,3,3,,,,,,,,,,,,,,,,,,,,,,,,,,,,,,,,,,,,,,,,,,,,,,,,,,,,,,,,,,,,,,,,,,,,,,,,,,,,,,,,,,,1636477244.166101,53.04669690132141,None,54.01891303062439,None,1,1,1.0055968761444092,54.01891303062439,None,55.11851787567139,None,,,,,,,,,,,,,,,,,,,,,,,,,,,,,,,,,,,,,,8016,001,02,2021_Nov_09_1059,task-switching-replication,2021.2.3,59.98546952318298,
1,5,untimed,02,standing,switch,incongruant,dashed,triangle,yellow,stimuli/dashed-rectangle.png,stimuli/yellow-triangle.png,2,0,4,4,4,,,,,,,,,,,,,,,,,,,,,,,,,,,,,,,,,,,,,,,,,,,,,,,,,,,,,,,,,,,,,,,,,,,,,,,,,,,,,,,,,,,1636477246.3444507,55.34814786911011,None,56.32057499885559,None,2,1,0.836669921875,56.32057499885559,None,57.29659605026245,None,,,,,,,,,,,,,,,,,,,,,,,,,,,,,,,,,,,,,,8016,001,02,2021_Nov_09_1059,task-switching-replication,2021.2.3,59.98546952318298,
1,6,untimed,02,standing,switch,incongruant,solid,square,blue,stimuli/solid-rectangle.png,stimuli/blue-square.png,1,0,5,5,5,0,0,0,0,,,,,,,,,,,,,,,,,,,,,,,,,,,,,,,,,,,,,,,,,,,,,,,,,,,,,,,,,,,,,,,,,,,,,,,,,,,,,,,1636477249.2981896,57.52596187591553,None,58.49669694900513,None,2,0,1.6247689723968506,58.49669694900513,None,,,60.2228319644928,61.24389886856079,60.25595998764038,None,,,,,,,,,,,,,,,,,,,,,,,,,,,,,,,,,,8016,001,02,2021_Nov_09_1059,task-switching-replication,2021.2.3,59.98546952318298,
1,6,untimed,02,standing,switch,incongruant,solid,square,blue,stimuli/solid-rectangle.png,stimuli/blue-square.png,1,0,5,5,5,,,,,,,,,,,,,,,,,,,,,,,,,,,,,,,,,,,,,,,,,,,,,,,,,,,,,,,,,,,,,,,,,,,,,,,,,,,,,,,,,,,,,,,,,,,,,65.26023197174072,None,,,,,,,,,,,,,,,,,,,,,,,,,,,,,,,,,,,,,,8016,001,02,2021_Nov_09_1059,task-switching-replication,2021.2.3,59.98546952318298,
1,7,untimed,02,standing,switch,congruant,dashed,square,blue,stimuli/dashed-rectangle.png,stimuli/blue-square.png,1,0,6,6,6,,,,,,,,,,,,,,,,,,,,,,,,,,,,,,,,,,,,,,,,,,,,,,,,,,,,,,,,,,,,,,,,,,,,,,,,,,,,,,,,,,,1636477256.0900373,65.45731282234192,None,66.426687002182,None,1,1,0.5097701549530029,66.426687002182,None,67.04272294044495,None,,,,,,,,,,,,,,,,,,,,,,,,,,,,,,,,,,,,,,8016,001,02,2021_Nov_09_1059,task-switching-replication,2021.2.3,59.98546952318298,
1,8,untimed,02,standing,noswitch,incongruant,dashed,triangle,blue,stimuli/dashed-rectangle.png,stimuli/blue-triangle.png,2,0,7,7,7,,,,,0,0,0,0,,,,,,,,,,,,,,,,,,,,,,,,,,,,,,,,,,,,,,,,,,,,,,,,,,,,,,,,,,,,,,,,,,,,,,,,,,,1636477257.7865722,67.27317190170288,None,68.24277997016907,None,1,0,0.392380952835083,68.24277997016907,None,,,,,,,68.71121287345886,69.73193192481995,68.74476194381714,None,,,,,,,,,,,,,,,,,,,,,,,,,,,,,,8016,001,02,2021_Nov_09_1059,task-switching-replication,2021.2.3,59.98546952318298,
1,8,untimed,02,standing,noswitch,incongruant,dashed,triangle,blue,stimuli/dashed-rectangle.png,stimuli/blue-triangle.png,2,0,7,7,7,,,,,,,,,,,,,,,,,,,,,,,,,,,,,,,,,,,,,,,,,,,,,,,,,,,,,,,,,,,,,,,,,,,,,,,,,,,,,,,,,,,,,,,,,,,,,73.74865388870239,None,,,,,,,,,,,,,,,,,,,,,,,,,,,,,,,,,,,,,,8016,001,02,2021_Nov_09_1059,task-switching-replication,2021.2.3,59.98546952318298,
1,9,untimed,02,standing,switch,congruant,solid,triangle,yellow,stimuli/solid-rectangle.png,stimuli/yellow-triangle.png,2,0,8,8,8,0,0,0,0,,,,,,,,,,,,,,,,,,,,,,,,,,,,,,,,,,,,,,,,,,,,,,,,,,,,,,,,,,,,,,,,,,,,,,,,,,,,,,,1636477264.4751198,73.94580888748169,None,74.93059492111206,None,1,0,0.4024050235748291,74.93059492111206,None,,,75.39971899986267,76.42464685440063,75.4321038722992,None,,,,,,,,,,,,,,,,,,,,,,,,,,,,,,,,,,8016,001,02,2021_Nov_09_1059,task-switching-replication,2021.2.3,59.98546952318298,
1,9,untimed,02,standing,switch,congruant,solid,triangle,yellow,stimuli/solid-rectangle.png,stimuli/yellow-triangle.png,2,0,8,8,8,,,,,,,,,,,,,,,,,,,,,,,,,,,,,,,,,,,,,,,,,,,,,,,,,,,,,,,,,,,,,,,,,,,,,,,,,,,,,,,,,,,,,,,,,,,,,80.44653487205505,None,,,,,,,,,,,,,,,,,,,,,,,,,,,,,,,,,,,,,,8016,001,02,2021_Nov_09_1059,task-switching-replication,2021.2.3,59.98546952318298,
1,10,untimed,02,standing,switch,congruant,dashed,triangle,blue,stimuli/dashed-rectangle.png,stimuli/blue-triangle.png,2,0,9,9,9,,,,,,,,,,,,,,,,,,,,,,,,,,,,,,,,,,,,,,,,,,,,,,,,,,,,,,,,,,,,,,,,,,,,,,,,,,,,,,,,,,,1636477271.580752,80.64388990402222,None,81.61701202392578,None,2,1,0.7961947917938232,81.61701202392578,None,82.53358197212219,None,,,,,,,,,,,,,,,,,,,,,,,,,,,,,,,,,,,,,,8016,001,02,2021_Nov_09_1059,task-switching-replication,2021.2.3,59.98546952318298,
1,11,untimed,02,standing,switch,congruant,solid,square,yellow,stimuli/solid-rectangle.png,stimuli/yellow-square.png,2,0,10,10,10,0,0,0,0,,,,,,,,,,,,,,,,,,,,,,,,,,,,,,,,,,,,,,,,,,,,,,,,,,,,,,,,,,,,,,,,,,,,,,,,,,,,,,,1636477273.3393593,82.76272392272949,None,83.73301601409912,None,1,0,0.4190859794616699,83.73301601409912,None,,,84.26410484313965,85.28445482254028,84.29642486572266,None,,,,,,,,,,,,,,,,,,,,,,,,,,,,,,,,,,8016,001,02,2021_Nov_09_1059,task-switching-replication,2021.2.3,59.98546952318298,
1,11,untimed,02,standing,switch,congruant,solid,square,yellow,stimuli/solid-rectangle.png,stimuli/yellow-square.png,2,0,10,10,10,,,,,,,,,,,,,,,,,,,,,,,,,,,,,,,,,,,,,,,,,,,,,,,,,,,,,,,,,,,,,,,,,,,,,,,,,,,,,,,,,,,,,,,,,,,,,89.30894589424133,None,,,,,,,,,,,,,,,,,,,,,,,,,,,,,,,,,,,,,,8016,001,02,2021_Nov_09_1059,task-switching-replication,2021.2.3,59.98546952318298,
1,12,untimed,02,standing,switch,congruant,dashed,triangle,yellow,stimuli/dashed-rectangle.png,stimuli/yellow-triangle.png,2,0,11,11,11,,,,,,,,,,,,,,,,,,,,,,,,,,,,,,,,,,,,,,,,,,,,,,,,,,,,,,,,,,,,,,,,,,,,,,,,,,,,,,,,,,,1636477280.199278,89.50587105751038,None,90.47536993026733,None,2,1,0.5399448871612549,90.47536993026733,None,91.1521098613739,None,,,,,,,,,,,,,,,,,,,,,,,,,,,,,,,,,,,,,,8016,001,02,2021_Nov_09_1059,task-switching-replication,2021.2.3,59.98546952318298,
,,,02,,,,,,,,,,,,,,,,,,,,,,,,,,,,,,,,,,,,,,,,,,,,,,,,,,,,,,,,,,,,,,,,,,,,,,,,,,,,,,,,,,,,,,,,,,,,,,,,,,,,,,,,,,,,,,,,,,,,91.3818039894104,None,2,1.7684810161590576,91.3818039894104,None,,,,,,,,,,,,,,,,,,,,,,,,8016,001,02,2021_Nov_09_1059,task-switching-replication,2021.2.3,59.98546952318298,
,,,02,,,,,,,,,,,,,,,,,,,,,,,,,,,,,,,,,,,,,,,,,,,,,,,,,,,,,,,,,,,,,,,,,,,,,,,,,,,,,,,,,,,,,,,,,,,,,,,,,,,,,,,,,,,,,,,,,,,,,,,,,,93.25704884529114,None,2,3.960080146789551,93.25704884529114,None,,,,,,,,,,,,,,,,,,8016,001,02,2021_Nov_09_1059,task-switching-replication,2021.2.3,59.98546952318298,
1,1,timed,02,standing,buffer,buffer,dashed,triangle,yellow,stimuli/dashed-rectangle.png,stimuli/yellow-triangle.png,2,,,,,,,,,,,,,0,0,0,0,,,,,,,,,,,,,0,0,0,0,,,,,,,,,,,,,,,,,,,,,,,,,,,,,,,,,,,,,,,,,,,,,,,,,,,,,,,1636477288.968793,,,,,,,,,,,,,,,,,,,,,,,,,,,,,,,,97.37620782852173,None,98.36420202255249,None,None,0,98.36420202255249,None,99.90266752243042,100.92268085479736,99.93548893928528,None,,,,,,8016,001,02,2021_Nov_09_1059,task-switching-replication,2021.2.3,59.98546952318298,
1,1,timed,02,standing,buffer,buffer,dashed,triangle,yellow,stimuli/dashed-rectangle.png,stimuli/yellow-triangle.png,2,,,,,,,,,,,,,0,0,0,0,,,,,,,,,,,,,,,,,,,,,,,,,,,,,,,,,,,,,,,,,,,,,,,,,,,,,,,,,,,,,,,,,,,,,,,,,,,,,,,,,104.93948888778687,None,,,,,,,,,,,,,,,,,,,,,,,,,,,,,,,,,,,,,,8016,001,02,2021_Nov_09_1059,task-switching-replication,2021.2.3,59.98546952318298,
1,2,timed,02,standing,switch,congruant,solid,square,yellow,stimuli/solid-rectangle.png,stimuli/yellow-square.png,2,,,,,,,,,,,,,0,1,1,1,,,,,0,0,0,0,,,,,,,,,,,,,,,,,,,,,,,,,,,,,,,,,,,,,,,,,,,,,,,,,,,,,,,,,,,,,,,1636477296.729929,,,,,,,,,,,,,,,,,,,,,,,,,,,,,,,,105.13622283935547,None,106.12466382980347,None,None,0,106.12466382980347,None,,,,,107.6638674736023,108.68290901184082,107.69558501243591,None,,8016,001,02,2021_Nov_09_1059,task-switching-replication,2021.2.3,59.98546952318298,
1,2,timed,02,standing,switch,congruant,solid,square,yellow,stimuli/solid-rectangle.png,stimuli/yellow-square.png,2,,,,,,,,,,,,,0,1,1,1,,,,,,,,,,,,,,,,,,,,,,,,,,,,,,,,,,,,,,,,,,,,,,,,,,,,,,,,,,,,,,,,,,,,,,,,,,,,,,,,,112.69853901863098,None,,,,,,,,,,,,,,,,,,,,,,,,,,,,,,,,,,,,,,8016,001,02,2021_Nov_09_1059,task-switching-replication,2021.2.3,59.98546952318298,
1,3,timed,02,standing,switch,congruant,dashed,triangle,blue,stimuli/dashed-rectangle.png,stimuli/blue-triangle.png,2,,,,,,,,,,,,,0,2,2,2,,,,,,,,,,,,,0,0,0,0,,,,,,,,,,,,,,,,,,,,,,,,,,,,,,,,,,,,,,,,,,,,,,,,,,,,,,,1636477304.4872112,,,,,,,,,,,,,,,,,,,,,,,,,,,,,,,,112.89523601531982,None,113.88309001922607,None,None,0,113.88309001922607,None,115.42101263999939,116.44092798233032,115.45347285270691,None,,,,,,8016,001,02,2021_Nov_09_1059,task-switching-replication,2021.2.3,59.98546952318298,
1,3,timed,02,standing,switch,congruant,dashed,triangle,blue,stimuli/dashed-rectangle.png,stimuli/blue-triangle.png,2,,,,,,,,,,,,,0,2,2,2,,,,,,,,,,,,,,,,,,,,,,,,,,,,,,,,,,,,,,,,,,,,,,,,,,,,,,,,,,,,,,,,,,,,,,,,,,,,,,,,,120.45754790306091,None,,,,,,,,,,,,,,,,,,,,,,,,,,,,,,,,,,,,,,8016,001,02,2021_Nov_09_1059,task-switching-replication,2021.2.3,59.98546952318298,
,,,,,,,,,,,,,,,,,,,,,,,,,,,,,,,,,,,,,,,,,,,,,,,,,,,,,,,,,,,,,,,,,,,,,,,,,,,,,,,,,,,,,,,,,,,,,,,,,,,1636477311.0099418,,,,,,,,,,,,,,,,,,,,,,,,,,,,,,,,120.65396094322205,None,121.64711999893188,None,1,0,121.64711999893188,None,,,,,,,,,0.1758730411529541,,,,,,,,
