participant,session,condition,trialType,posture,blockNum,trialNum,switchTrialType,congruantTrialType,cueType,shapeType,shapeColor,response,correctResponse,correct,reactionTime
1000,1,1,experiment,standing,1,1,buffer,buffer,solid,square,yellow,right,right,yes,0.8505351543426514
1000,1,1,experiment,standing,1,2,noswitch,incongruant,solid,triangle,blue,left,left,yes,0.5903060436248779
1000,1,1,experiment,standing,1,3,noswitch,incongruant,solid,triangle,yellow,left,right,no,0.4281101226806641
1000,1,1,experiment,standing,1,4,switch,incongruant,dashed,triangle,yellow,left,left,yes,0.7670788764953613
1000,1,1,experiment,standing,1,5,noswitch,incongruant,dashed,square,yellow,left,right,no,0.6627371311187744
1000,1,1,experiment,standing,1,6,noswitch,congruant,dashed,square,blue,right,right,yes,0.4853310585021973
1000,1,1,experiment,standing,1,7,noswitch,incongruant,dashed,triangle,yellow,left,left,yes,0.624506950378418
1000,1,1,experiment,standing,1,8,noswitch,congruant,dashed,triangle,blue,left,left,yes,0.3860540390014648
1000,1,1,experiment,standing,1,9,noswitch,congruant,dashed,triangle,blue,left,left,yes,0.4220139980316162
1000,1,1,experiment,standing,1,10,switch,incongruant,solid,triangle,yellow,left,right,no,0.9416220188140868
1000,1,1,experiment,standing,1,11,switch,incongruant,dashed,triangle,yellow,left,left,yes,0.5149447917938232
1000,1,1,experiment,standing,1,12,noswitch,congruant,dashed,triangle,yellow,left,left,yes,0.4747180938720703
1000,1,1,experiment,standing,1,13,noswitch,incongruant,dashed,square,blue,right,right,yes,0.7147541046142578
1000,1,1,experiment,standing,1,14,switch,congruant,solid,square,yellow,right,right,yes,0.8478331565856934
1000,1,1,experiment,standing,1,15,noswitch,congruant,solid,square,yellow,right,right,yes,0.4303460121154785
1000,1,1,experiment,standing,1,16,switch,congruant,dashed,square,yellow,right,right,yes,0.4585409164428711
1000,1,1,experiment,standing,1,17,switch,incongruant,solid,square,blue,left,left,yes,0.679711103439331
1000,1,1,experiment,standing,1,18,switch,congruant,dashed,triangle,blue,left,left,yes,1.143887996673584
1000,1,1,experiment,standing,1,19,switch,incongruant,solid,triangle,yellow,left,right,no,0.6207010746002197
1000,1,1,experiment,standing,1,20,noswitch,incongruant,solid,triangle,blue,left,left,yes,0.4397318363189697
1000,1,1,experiment,standing,1,21,switch,congruant,dashed,triangle,blue,left,left,yes,0.5758979320526123
1000,1,1,experiment,standing,1,22,noswitch,incongruant,dashed,square,blue,right,right,yes,0.4816269874572754
1000,1,1,experiment,standing,1,23,switch,incongruant,solid,square,blue,left,left,yes,1.1881489753723145
1000,1,1,experiment,standing,1,24,noswitch,incongruant,solid,square,yellow,right,right,yes,0.5167269706726074
1000,1,1,experiment,standing,1,25,switch,incongruant,dashed,triangle,yellow,left,left,yes,0.5853419303894043
1000,1,1,experiment,standing,1,26,switch,congruant,solid,square,blue,right,left,no,0.6412999629974365
1000,1,1,experiment,standing,1,27,noswitch,incongruant,solid,square,yellow,right,right,yes,0.9149019718170166
1000,1,1,experiment,standing,1,28,noswitch,congruant,solid,square,yellow,right,right,yes,0.7494089603424072
1000,1,1,experiment,standing,1,29,noswitch,incongruant,solid,square,blue,left,left,yes,1.017948865890503
1000,1,1,experiment,standing,1,30,switch,incongruant,dashed,square,yellow,right,right,yes,0.5838279724121094
1000,1,1,experiment,standing,1,31,switch,congruant,solid,triangle,yellow,right,right,yes,0.5990948677062988
1000,1,1,experiment,standing,1,32,switch,congruant,dashed,square,blue,left,right,no,0.7259101867675781
1000,1,1,experiment,standing,1,33,switch,incongruant,solid,square,blue,left,left,yes,0.8353638648986816
1000,1,1,experiment,standing,1,34,switch,incongruant,dashed,square,yellow,right,right,yes,0.7570509910583496
1000,1,1,experiment,standing,1,35,switch,congruant,solid,square,yellow,right,right,yes,0.6431901454925537
1000,1,1,experiment,standing,1,36,switch,congruant,dashed,square,blue,left,right,no,0.7696449756622314
1000,1,1,experiment,standing,1,37,switch,incongruant,solid,triangle,blue,left,left,yes,0.9039349555969238
1000,1,1,experiment,standing,1,38,noswitch,congruant,solid,triangle,blue,left,left,yes,0.5094611644744873
1000,1,1,experiment,standing,1,39,noswitch,congruant,solid,triangle,blue,left,left,yes,0.4297709465026856
1000,1,1,experiment,standing,1,40,noswitch,congruant,solid,square,blue,left,left,yes,0.7351930141448975
1000,1,1,experiment,standing,1,41,noswitch,congruant,solid,triangle,blue,left,left,yes,0.4823219776153565
1000,1,1,experiment,standing,1,42,switch,congruant,dashed,triangle,yellow,left,left,yes,0.6830339431762695
1000,1,1,experiment,standing,1,43,noswitch,congruant,dashed,triangle,blue,left,left,yes,1.1099040508270264
1000,1,1,experiment,standing,1,44,noswitch,incongruant,dashed,square,yellow,right,right,yes,0.6000430583953857
1000,1,1,experiment,standing,1,45,noswitch,congruant,dashed,square,yellow,right,right,yes,0.5605199337005615
1000,1,1,experiment,standing,1,46,switch,congruant,solid,triangle,yellow,right,right,yes,0.9571537971496582
1000,1,1,experiment,standing,1,47,switch,congruant,dashed,square,blue,left,right,no,0.5686438083648682
1000,1,1,experiment,standing,1,48,noswitch,incongruant,dashed,triangle,blue,left,left,yes,0.7948517799377441
1000,1,1,experiment,standing,1,49,switch,incongruant,solid,triangle,yellow,right,right,yes,1.2062950134277344
1000,1,1,experiment,standing,2,1,buffer,buffer,dashed,triangle,blue,left,left,yes,0.6697909832000732
1000,1,1,experiment,standing,2,2,switch,incongruant,solid,triangle,yellow,right,right,yes,0.8981339931488037
1000,1,1,experiment,standing,2,3,noswitch,incongruant,solid,square,blue,left,left,yes,0.996246099472046
1000,1,1,experiment,standing,2,4,noswitch,congruant,solid,square,blue,left,left,yes,0.6354999542236328
1000,1,1,experiment,standing,2,5,switch,incongruant,dashed,square,yellow,right,right,yes,0.5125319957733154
1000,1,1,experiment,standing,2,6,switch,incongruant,solid,square,blue,left,left,yes,1.0149390697479248
1000,1,1,experiment,standing,2,7,switch,incongruant,dashed,square,blue,left,right,no,0.6090497970581055
1000,1,1,experiment,standing,2,8,noswitch,congruant,dashed,square,blue,left,right,no,0.6502020359039307
1000,1,1,experiment,standing,2,9,noswitch,incongruant,dashed,triangle,yellow,left,left,yes,0.6484248638153076
1000,1,1,experiment,standing,2,10,switch,incongruant,solid,square,yellow,right,right,yes,0.618527889251709
1000,1,1,experiment,standing,2,11,switch,incongruant,dashed,triangle,yellow,left,left,yes,1.017323017120361
1000,1,1,experiment,standing,2,12,switch,incongruant,solid,triangle,yellow,right,right,yes,0.975705862045288
1000,1,1,experiment,standing,2,13,noswitch,congruant,solid,square,yellow,right,right,yes,1.162451982498169
1000,1,1,experiment,standing,2,14,switch,congruant,dashed,square,yellow,timeout,right,no,
1000,1,1,experiment,standing,2,15,switch,incongruant,solid,triangle,blue,timeout,left,no,
1000,1,1,experiment,standing,2,16,noswitch,incongruant,solid,square,yellow,right,right,yes,0.74788498878479
1000,1,1,experiment,standing,2,17,noswitch,congruant,solid,triangle,yellow,right,right,yes,0.5103788375854492
1000,1,1,experiment,standing,2,18,switch,congruant,dashed,square,yellow,right,right,yes,0.4239580631256104
1000,1,1,experiment,standing,2,19,noswitch,incongruant,dashed,triangle,yellow,right,left,no,0.8440079689025879
1000,1,1,experiment,standing,2,20,noswitch,congruant,dashed,triangle,blue,left,left,yes,0.8706870079040527
1000,1,1,experiment,standing,2,21,noswitch,incongruant,dashed,square,blue,left,right,no,0.7029280662536621
1000,1,1,experiment,standing,2,22,noswitch,congruant,dashed,square,yellow,right,right,yes,0.4465789794921875
1000,1,1,experiment,standing,2,23,noswitch,incongruant,dashed,triangle,blue,right,left,no,0.7163949012756348
1000,1,1,experiment,standing,2,24,noswitch,congruant,dashed,triangle,blue,left,left,yes,0.6668038368225098
1000,1,1,experiment,standing,2,25,switch,incongruant,solid,triangle,yellow,right,right,yes,0.8029649257659912
1000,1,1,experiment,standing,2,26,noswitch,congruant,solid,square,yellow,right,right,yes,0.6520309448242188
1000,1,1,experiment,standing,2,27,switch,incongruant,dashed,triangle,yellow,left,left,yes,1.129265069961548
1000,1,1,experiment,standing,2,28,switch,congruant,solid,square,blue,left,left,yes,0.8242671489715576
1000,1,1,experiment,standing,2,29,noswitch,incongruant,solid,triangle,yellow,right,right,yes,0.7955632209777832
1000,1,1,experiment,standing,2,30,switch,congruant,dashed,square,blue,right,right,yes,0.9964988231658936
1000,1,1,experiment,standing,2,31,switch,congruant,solid,square,yellow,right,right,yes,1.0294570922851562
1000,1,1,experiment,standing,2,32,noswitch,incongruant,solid,square,blue,left,left,yes,0.8556759357452393
1000,1,1,experiment,standing,2,33,noswitch,congruant,solid,triangle,blue,left,left,yes,0.6622910499572754
1000,1,1,experiment,standing,2,34,switch,congruant,dashed,triangle,blue,left,left,yes,0.7628118991851807
1000,1,1,experiment,standing,2,35,switch,incongruant,solid,square,yellow,right,right,yes,0.5937161445617676
1000,1,1,experiment,standing,2,36,switch,congruant,dashed,square,yellow,right,right,yes,0.8637509346008301
1000,1,1,experiment,standing,2,37,noswitch,incongruant,dashed,triangle,yellow,timeout,left,no,
1000,1,1,experiment,standing,2,38,switch,congruant,solid,triangle,blue,right,left,no,0.7659430503845215
1000,1,1,experiment,standing,2,39,noswitch,incongruant,solid,triangle,yellow,right,right,yes,0.6965410709381104
1000,1,1,experiment,standing,2,40,switch,congruant,dashed,square,blue,left,right,no,1.2116570472717283
1000,1,1,experiment,standing,2,41,switch,incongruant,solid,triangle,blue,right,left,no,0.5358378887176514
1000,1,1,experiment,standing,2,42,noswitch,congruant,solid,square,blue,left,left,yes,0.6296050548553467
1000,1,1,experiment,standing,2,43,switch,congruant,dashed,triangle,blue,left,left,yes,0.7605690956115723
1000,1,1,experiment,standing,2,44,noswitch,incongruant,dashed,square,yellow,right,right,yes,0.9559879302978516
1000,1,1,experiment,standing,2,45,noswitch,congruant,dashed,square,blue,right,right,yes,0.476006031036377
1000,1,1,experiment,standing,2,46,noswitch,incongruant,dashed,triangle,yellow,left,left,yes,0.7633521556854248
1000,1,1,experiment,standing,2,47,switch,congruant,solid,triangle,blue,right,left,no,0.7294418811798096
1000,1,1,experiment,standing,2,48,noswitch,congruant,solid,triangle,blue,left,left,yes,0.4848289489746094
1000,1,1,experiment,standing,2,49,switch,congruant,dashed,triangle,blue,right,left,no,0.6749651432037354
1000,1,1,experiment,standing,3,1,buffer,buffer,dashed,triangle,yellow,left,left,yes,0.92240309715271
1000,1,1,experiment,standing,3,2,switch,congruant,solid,triangle,blue,right,left,no,0.8570280075073242
1000,1,1,experiment,standing,3,3,noswitch,congruant,solid,square,blue,timeout,left,no,
1000,1,1,experiment,standing,3,4,noswitch,congruant,solid,triangle,blue,left,left,yes,1.1037638187408447
1000,1,1,experiment,standing,3,5,switch,congruant,dashed,triangle,blue,left,left,yes,0.7333960533142091
1000,1,1,experiment,standing,3,6,noswitch,congruant,dashed,triangle,yellow,left,left,yes,0.7161340713500977
1000,1,1,experiment,standing,3,7,noswitch,incongruant,dashed,square,blue,right,right,yes,0.4525430202484131
1000,1,1,experiment,standing,3,8,switch,incongruant,solid,square,blue,left,left,yes,0.9851460456848145
1000,1,1,experiment,standing,3,9,noswitch,incongruant,solid,triangle,yellow,right,right,yes,0.7046580314636229
1000,1,1,experiment,standing,3,10,noswitch,congruant,solid,square,yellow,right,right,yes,0.5852179527282715
1000,1,1,experiment,standing,3,11,noswitch,incongruant,solid,triangle,blue,left,left,yes,0.3869061470031738
1000,1,1,experiment,standing,3,12,noswitch,congruant,solid,triangle,blue,left,left,yes,0.4754509925842285
1000,1,1,experiment,standing,3,13,switch,incongruant,dashed,square,yellow,right,right,yes,0.5794501304626465
1000,1,1,experiment,standing,3,14,switch,congruant,solid,triangle,yellow,left,right,no,0.7106080055236816
1000,1,1,experiment,standing,3,15,switch,incongruant,dashed,triangle,blue,left,left,yes,0.7884669303894043
1000,1,1,experiment,standing,3,16,switch,incongruant,solid,square,yellow,right,right,yes,1.3035361766815186
1000,1,1,experiment,standing,3,17,switch,incongruant,dashed,triangle,blue,left,left,yes,0.8933110237121582
1000,1,1,experiment,standing,3,18,noswitch,incongruant,dashed,square,blue,right,right,yes,0.8848831653594971
1000,1,1,experiment,standing,3,19,noswitch,congruant,dashed,square,yellow,right,right,yes,0.5182480812072754
1000,1,1,experiment,standing,3,20,switch,incongruant,solid,square,blue,left,left,yes,0.7578761577606201
1000,1,1,experiment,standing,3,21,switch,congruant,dashed,triangle,yellow,left,left,yes,1.2172269821166992
1000,1,1,experiment,standing,3,22,noswitch,incongruant,dashed,square,blue,right,right,yes,0.5589478015899658
1000,1,1,experiment,standing,3,23,switch,congruant,solid,triangle,yellow,right,right,yes,0.9905400276184082
1000,1,1,experiment,standing,3,24,switch,congruant,dashed,square,yellow,left,right,no,1.1247708797454834
1000,1,1,experiment,standing,3,25,switch,incongruant,solid,square,blue,left,left,yes,0.882457971572876
1000,1,1,experiment,standing,3,26,switch,incongruant,dashed,square,blue,right,right,yes,0.6336090564727783
1000,1,1,experiment,standing,3,27,noswitch,incongruant,dashed,triangle,blue,left,left,yes,1.001483917236328
1000,1,1,experiment,standing,3,28,switch,congruant,solid,triangle,blue,left,left,yes,0.9807381629943848
1000,1,1,experiment,standing,3,29,noswitch,incongruant,solid,square,yellow,right,right,yes,0.9171490669250488
1000,1,1,experiment,standing,3,30,switch,incongruant,dashed,triangle,blue,left,left,yes,1.1823158264160156
1000,1,1,experiment,standing,3,31,switch,incongruant,solid,square,yellow,right,right,yes,0.5992779731750488
1000,1,1,experiment,standing,3,32,switch,congruant,dashed,square,blue,left,right,no,0.6228640079498291
1000,1,1,experiment,standing,3,33,noswitch,congruant,dashed,square,blue,right,right,yes,0.891383171081543
1000,1,1,experiment,standing,3,34,noswitch,incongruant,dashed,triangle,yellow,left,left,yes,0.7796089649200441
1000,1,1,experiment,standing,3,35,switch,congruant,solid,square,blue,right,left,no,1.0081710815429688
1000,1,1,experiment,standing,3,36,noswitch,congruant,solid,square,blue,left,left,yes,1.0681219100952148
1000,1,1,experiment,standing,3,37,noswitch,incongruant,solid,square,yellow,right,right,yes,0.737191915512085
1000,1,1,experiment,standing,3,38,noswitch,congruant,solid,triangle,yellow,left,right,no,0.7018430233001709
1000,1,1,experiment,standing,3,39,switch,congruant,dashed,square,yellow,timeout,right,no,
1000,1,1,experiment,standing,3,40,switch,congruant,solid,triangle,yellow,left,right,no,0.35645103454589844
1000,1,1,experiment,standing,3,41,switch,incongruant,dashed,triangle,blue,left,left,yes,0.9598598480224608
1000,1,1,experiment,standing,3,42,noswitch,incongruant,dashed,square,yellow,right,right,yes,0.40654611587524414
1000,1,1,experiment,standing,3,43,noswitch,congruant,dashed,square,yellow,right,right,yes,0.6391980648040771
1000,1,1,experiment,standing,3,44,noswitch,incongruant,dashed,triangle,yellow,left,left,yes,0.9427530765533448
1000,1,1,experiment,standing,3,45,switch,incongruant,solid,square,yellow,right,right,yes,1.1013550758361816
1000,1,1,experiment,standing,3,46,noswitch,congruant,solid,triangle,yellow,right,right,yes,0.7226879596710205
1000,1,1,experiment,standing,3,47,noswitch,incongruant,solid,triangle,blue,left,left,yes,0.5205199718475342
1000,1,1,experiment,standing,3,48,switch,congruant,dashed,triangle,yellow,right,left,no,1.216681957244873
1000,1,1,experiment,standing,3,49,noswitch,congruant,dashed,triangle,yellow,left,left,yes,0.43877005577087397
1000,1,1,experiment,standing,4,1,buffer,buffer,solid,triangle,yellow,right,right,yes,0.6431069374084473
1000,1,1,experiment,standing,4,2,noswitch,incongruant,solid,square,blue,left,left,yes,0.6386749744415283
1000,1,1,experiment,standing,4,3,noswitch,congruant,solid,square,blue,left,left,yes,0.5160579681396484
1000,1,1,experiment,standing,4,4,noswitch,congruant,solid,triangle,blue,left,left,yes,0.5083351135253906
1000,1,1,experiment,standing,4,5,switch,congruant,dashed,triangle,yellow,left,left,yes,0.6056201457977295
1000,1,1,experiment,standing,4,6,noswitch,congruant,dashed,triangle,blue,left,left,yes,0.4770879745483398
1000,1,1,experiment,standing,4,7,noswitch,congruant,dashed,triangle,blue,left,left,yes,0.5959250926971436
1000,1,1,experiment,standing,4,8,noswitch,congruant,dashed,triangle,blue,left,left,yes,0.4762639999389648
1000,1,1,experiment,standing,4,9,switch,congruant,solid,triangle,blue,left,left,yes,0.5110409259796143
1000,1,1,experiment,standing,4,10,noswitch,incongruant,solid,triangle,yellow,right,right,yes,0.9002399444580078
1000,1,1,experiment,standing,4,11,switch,incongruant,dashed,triangle,yellow,left,left,yes,0.8945248126983643
1000,1,1,experiment,standing,4,12,noswitch,congruant,dashed,triangle,blue,left,left,yes,0.4790899753570557
1000,1,1,experiment,standing,4,13,switch,incongruant,solid,triangle,yellow,left,right,no,0.9645040035247804
1000,1,1,experiment,standing,4,14,noswitch,incongruant,solid,triangle,blue,left,left,yes,0.6821038722991943
1000,1,1,experiment,standing,4,15,noswitch,congruant,solid,square,blue,left,left,yes,0.5145349502563477
1000,1,1,experiment,standing,4,16,switch,incongruant,dashed,square,yellow,right,right,yes,1.0271689891815186
1000,1,1,experiment,standing,4,17,switch,incongruant,solid,square,blue,left,left,yes,0.7909810543060303
1000,1,1,experiment,standing,4,18,switch,congruant,dashed,triangle,yellow,left,left,yes,0.90802001953125
1000,1,1,experiment,standing,4,19,noswitch,incongruant,dashed,square,blue,left,right,no,0.7364590167999268
1000,1,1,experiment,standing,4,20,noswitch,incongruant,dashed,triangle,blue,left,left,yes,0.6773748397827148
1000,1,1,experiment,standing,4,21,noswitch,incongruant,dashed,square,yellow,right,right,yes,0.7237780094146729
1000,1,1,experiment,standing,4,22,switch,incongruant,solid,square,blue,left,left,yes,1.2629899978637695
1000,1,1,experiment,standing,4,23,switch,incongruant,dashed,square,yellow,right,right,yes,0.7639231681823729
1000,1,1,experiment,standing,4,24,switch,congruant,solid,square,yellow,right,right,yes,0.8831629753112793
1000,1,1,experiment,standing,4,25,noswitch,incongruant,solid,triangle,blue,left,left,yes,1.070305109024048
1000,1,1,experiment,standing,4,26,noswitch,incongruant,solid,square,yellow,right,right,yes,0.4459848403930664
1000,1,1,experiment,standing,4,27,switch,congruant,dashed,square,blue,right,right,yes,0.6596300601959229
1000,1,1,experiment,standing,4,28,noswitch,congruant,dashed,square,blue,right,right,yes,0.5078639984130859
1000,1,1,experiment,standing,4,29,switch,congruant,solid,square,yellow,right,right,yes,0.5691947937011719
1000,1,1,experiment,standing,4,30,switch,incongruant,dashed,triangle,blue,left,left,yes,0.7532629966735841
1000,1,1,experiment,standing,4,31,noswitch,incongruant,dashed,square,yellow,right,right,yes,0.493232011795044
1000,1,1,experiment,standing,4,32,noswitch,congruant,dashed,square,blue,right,right,yes,0.4964737892150879
1000,1,1,experiment,standing,4,33,switch,incongruant,solid,square,blue,right,left,no,0.7502539157867432
1000,1,1,experiment,standing,4,34,switch,congruant,dashed,triangle,yellow,left,left,yes,0.9453170299530028
1000,1,1,experiment,standing,4,35,switch,incongruant,solid,triangle,yellow,left,right,no,1.246035099029541
1000,1,1,experiment,standing,4,36,noswitch,congruant,solid,square,yellow,right,right,yes,0.567080020904541
1000,1,1,experiment,standing,4,37,noswitch,congruant,solid,square,yellow,right,right,yes,0.3886489868164063
1000,1,1,experiment,standing,4,38,noswitch,congruant,solid,triangle,yellow,right,right,yes,0.6996688842773438
1000,1,1,experiment,standing,4,39,switch,congruant,dashed,square,yellow,left,right,no,0.7933261394500732
1000,1,1,experiment,standing,4,40,switch,incongruant,solid,triangle,blue,left,left,yes,0.4135000705718994
1000,1,1,experiment,standing,4,41,switch,congruant,dashed,triangle,yellow,left,left,yes,0.3929519653320313
1000,1,1,experiment,standing,4,42,switch,incongruant,solid,triangle,yellow,right,right,yes,0.7858889102935791
1000,1,1,experiment,standing,4,43,switch,incongruant,dashed,triangle,yellow,left,left,yes,0.9315099716186525
1000,1,1,experiment,standing,4,44,noswitch,incongruant,dashed,square,blue,left,right,no,1.1915950775146484
1000,1,1,experiment,standing,4,45,switch,congruant,solid,square,yellow,right,right,yes,0.6939148902893066
1000,1,1,experiment,standing,4,46,switch,congruant,dashed,square,yellow,right,right,yes,0.4560308456420898
1000,1,1,experiment,standing,4,47,noswitch,congruant,dashed,square,blue,left,right,no,0.4575059413909912
1000,1,1,experiment,standing,4,48,switch,incongruant,solid,triangle,blue,right,left,no,0.2273190021514893
1000,1,1,experiment,standing,4,49,noswitch,incongruant,solid,triangle,yellow,left,right,no,0.24216318130493164
1000,1,1,experiment,sitting,1,1,buffer,buffer,solid,square,yellow,right,right,yes,0.7219820022583008
1000,1,1,experiment,sitting,1,2,switch,incongruant,dashed,triangle,yellow,left,left,yes,0.8474428653717041
1000,1,1,experiment,sitting,1,3,noswitch,incongruant,dashed,square,blue,right,right,yes,0.5064930915832521
1000,1,1,experiment,sitting,1,4,noswitch,congruant,dashed,square,yellow,right,right,yes,0.6255590915679932
1000,1,1,experiment,sitting,1,5,switch,incongruant,solid,triangle,blue,left,left,yes,1.0143249034881592
1000,1,1,experiment,sitting,1,6,noswitch,incongruant,solid,square,yellow,right,right,yes,0.9294850826263428
1000,1,1,experiment,sitting,1,7,noswitch,congruant,solid,square,yellow,right,right,yes,0.4253981113433838
1000,1,1,experiment,sitting,1,8,noswitch,incongruant,solid,square,blue,left,left,yes,0.402799129486084
1000,1,1,experiment,sitting,1,9,noswitch,incongruant,solid,triangle,yellow,right,right,yes,0.885145902633667
1000,1,1,experiment,sitting,1,10,switch,incongruant,dashed,triangle,blue,left,left,yes,0.7564160823822021
1000,1,1,experiment,sitting,1,11,switch,congruant,solid,triangle,blue,right,left,no,0.7136940956115723
1000,1,1,experiment,sitting,1,12,switch,congruant,dashed,triangle,blue,left,left,yes,1.4332518577575684
1000,1,1,experiment,sitting,1,13,switch,incongruant,solid,triangle,yellow,left,right,no,1.373323917388916
1000,1,1,experiment,sitting,1,14,noswitch,incongruant,solid,square,blue,right,left,no,0.6773581504821777
1000,1,1,experiment,sitting,1,15,switch,congruant,dashed,triangle,blue,left,left,yes,0.4932880401611328
1000,1,1,experiment,sitting,1,16,switch,congruant,solid,triangle,blue,left,left,yes,1.1045169830322266
1000,1,1,experiment,sitting,1,17,switch,congruant,dashed,triangle,blue,left,left,yes,0.6516518592834473
1000,1,1,experiment,sitting,1,18,noswitch,incongruant,dashed,square,yellow,right,right,yes,0.3945369720458984
1000,1,1,experiment,sitting,1,19,noswitch,congruant,dashed,square,blue,left,right,no,0.7793700695037842
1000,1,1,experiment,sitting,1,20,switch,congruant,solid,triangle,yellow,right,right,yes,0.5431501865386963
1000,1,1,experiment,sitting,1,21,noswitch,congruant,solid,triangle,yellow,right,right,yes,0.6398890018463135
1000,1,1,experiment,sitting,1,22,noswitch,incongruant,solid,square,blue,left,left,yes,0.7628579139709473
1000,1,1,experiment,sitting,1,23,noswitch,congruant,solid,square,blue,left,left,yes,0.63909912109375
1000,1,1,experiment,sitting,1,24,switch,congruant,dashed,triangle,yellow,left,left,yes,0.9511981010437012
1000,1,1,experiment,sitting,1,25,switch,congruant,solid,square,blue,right,left,no,1.1506190299987793
1000,1,1,experiment,sitting,1,26,switch,incongruant,dashed,square,yellow,right,right,yes,0.8622539043426514
1000,1,1,experiment,sitting,1,27,noswitch,congruant,dashed,square,blue,right,right,yes,0.4231779575347901
1000,1,1,experiment,sitting,1,28,switch,congruant,solid,triangle,yellow,right,right,yes,1.0829920768737793
1000,1,1,experiment,sitting,1,29,noswitch,congruant,solid,square,yellow,right,right,yes,0.4576921463012695
1000,1,1,experiment,sitting,1,30,noswitch,congruant,solid,triangle,yellow,right,right,yes,0.4001469612121582
1000,1,1,experiment,sitting,1,31,switch,incongruant,dashed,triangle,blue,left,left,yes,0.8070399761199951
1000,1,1,experiment,sitting,1,32,switch,congruant,solid,triangle,blue,left,left,yes,1.0299291610717771
1000,1,1,experiment,sitting,1,33,switch,congruant,dashed,triangle,yellow,left,left,yes,0.733867883682251
1000,1,1,experiment,sitting,1,34,noswitch,incongruant,dashed,square,yellow,right,right,yes,0.7301721572875977
1000,1,1,experiment,sitting,1,35,noswitch,congruant,dashed,square,yellow,right,right,yes,0.42720794677734375
1000,1,1,experiment,sitting,1,36,switch,congruant,solid,square,yellow,right,right,yes,0.5325858592987059
1000,1,1,experiment,sitting,1,37,switch,incongruant,dashed,triangle,blue,left,left,yes,0.6270079612731934
1000,1,1,experiment,sitting,1,38,switch,congruant,solid,triangle,blue,left,left,yes,1.1391689777374268
1000,1,1,experiment,sitting,1,39,switch,congruant,dashed,triangle,yellow,left,left,yes,0.6507019996643066
1000,1,1,experiment,sitting,1,40,noswitch,incongruant,dashed,square,blue,right,right,yes,0.782465934753418
1000,1,1,experiment,sitting,1,41,noswitch,incongruant,dashed,triangle,yellow,left,left,yes,0.600416898727417
1000,1,1,experiment,sitting,1,42,switch,incongruant,solid,square,yellow,right,right,yes,1.0386240482330322
1000,1,1,experiment,sitting,1,43,noswitch,incongruant,solid,square,blue,left,left,yes,0.7562351226806641
1000,1,1,experiment,sitting,1,44,switch,incongruant,dashed,square,blue,left,right,no,1.161802053451538
1000,1,1,experiment,sitting,1,45,noswitch,incongruant,dashed,triangle,yellow,left,left,yes,0.8043830394744873
1000,1,1,experiment,sitting,1,46,noswitch,incongruant,dashed,square,yellow,right,right,yes,0.9012470245361328
1000,1,1,experiment,sitting,1,47,noswitch,congruant,dashed,square,blue,right,right,yes,0.8294949531555176
1000,1,1,experiment,sitting,1,48,switch,incongruant,solid,triangle,blue,left,left,yes,0.7363100051879883
1000,1,1,experiment,sitting,1,49,noswitch,incongruant,solid,square,yellow,right,right,yes,1.1145238876342771
1000,1,1,experiment,sitting,2,1,buffer,buffer,dashed,square,blue,right,right,yes,1.3013179302215576
1000,1,1,experiment,sitting,2,2,switch,congruant,solid,square,yellow,right,right,yes,0.8475661277770996
1000,1,1,experiment,sitting,2,3,noswitch,incongruant,solid,square,blue,right,left,no,0.5438699722290039
1000,1,1,experiment,sitting,2,4,noswitch,incongruant,solid,triangle,yellow,left,right,no,1.0370450019836426
1000,1,1,experiment,sitting,2,5,noswitch,incongruant,solid,triangle,blue,left,left,yes,0.8613431453704834
1000,1,1,experiment,sitting,2,6,noswitch,incongruant,solid,triangle,yellow,right,right,yes,1.3901488780975342
1000,1,1,experiment,sitting,2,7,switch,incongruant,dashed,triangle,blue,left,left,yes,1.3913559913635254
1000,1,1,experiment,sitting,2,8,switch,incongruant,solid,square,yellow,left,right,no,0.7771070003509521
1000,1,1,experiment,sitting,2,9,noswitch,congruant,solid,square,yellow,left,right,no,1.044224977493286
1000,1,1,experiment,sitting,2,10,switch,congruant,dashed,square,blue,right,right,yes,0.6301188468933105
1000,1,1,experiment,sitting,2,11,noswitch,incongruant,dashed,triangle,blue,left,left,yes,0.8111069202423096
1000,1,1,experiment,sitting,2,12,switch,incongruant,solid,square,yellow,right,right,yes,0.6321470737457275
1000,1,1,experiment,sitting,2,13,switch,congruant,dashed,square,blue,left,right,no,1.0701539516448977
1000,1,1,experiment,sitting,2,14,switch,congruant,solid,square,yellow,left,right,no,0.8070101737976074
1000,1,1,experiment,sitting,2,15,noswitch,congruant,solid,square,yellow,right,right,yes,0.5398468971252441
1000,1,1,experiment,sitting,2,16,noswitch,incongruant,solid,square,blue,left,left,yes,0.5980398654937744
1000,1,1,experiment,sitting,2,17,switch,incongruant,dashed,square,yellow,right,right,yes,0.8273780345916748
1000,1,1,experiment,sitting,2,18,noswitch,incongruant,dashed,triangle,yellow,left,left,yes,0.4856750965118408
1000,1,1,experiment,sitting,2,19,switch,congruant,solid,square,blue,left,left,yes,0.8231399059295654
1000,1,1,experiment,sitting,2,20,noswitch,congruant,solid,square,blue,left,left,yes,0.4335780143737793
1000,1,1,experiment,sitting,2,21,noswitch,congruant,solid,triangle,blue,left,left,yes,0.44674205780029297
1000,1,1,experiment,sitting,2,22,noswitch,congruant,solid,triangle,blue,left,left,yes,0.4768249988555908
1000,1,1,experiment,sitting,2,23,switch,incongruant,dashed,square,blue,right,right,yes,0.6264400482177734
1000,1,1,experiment,sitting,2,24,switch,incongruant,solid,triangle,blue,left,left,yes,0.9494059085845948
1000,1,1,experiment,sitting,2,25,switch,congruant,dashed,triangle,yellow,right,left,no,0.7109968662261963
1000,1,1,experiment,sitting,2,26,noswitch,congruant,dashed,triangle,blue,left,left,yes,0.7344379425048828
1000,1,1,experiment,sitting,2,27,noswitch,incongruant,dashed,square,blue,right,right,yes,0.3806529045104981
1000,1,1,experiment,sitting,2,28,noswitch,incongruant,dashed,triangle,blue,left,left,yes,0.6084558963775635
1000,1,1,experiment,sitting,2,29,noswitch,incongruant,dashed,square,yellow,right,right,yes,0.6001739501953125
1000,1,1,experiment,sitting,2,30,noswitch,incongruant,dashed,triangle,yellow,left,left,yes,0.6707279682159424
1000,1,1,experiment,sitting,2,31,noswitch,congruant,dashed,triangle,blue,left,left,yes,0.6021099090576172
1000,1,1,experiment,sitting,2,32,switch,incongruant,solid,triangle,yellow,right,right,yes,1.1733479499816897
1000,1,1,experiment,sitting,2,33,noswitch,incongruant,solid,triangle,blue,left,left,yes,0.4172830581665039
1000,1,1,experiment,sitting,2,34,switch,incongruant,dashed,square,blue,right,right,yes,0.7668490409851074
1000,1,1,experiment,sitting,2,35,noswitch,congruant,dashed,square,blue,right,right,yes,0.691615104675293
1000,1,1,experiment,sitting,2,36,switch,congruant,solid,triangle,yellow,left,right,no,0.7539699077606201
1000,1,1,experiment,sitting,2,37,noswitch,incongruant,solid,square,blue,left,left,yes,0.6025440692901611
1000,1,1,experiment,sitting,2,38,switch,congruant,dashed,triangle,yellow,left,left,yes,1.2119009494781494
1000,1,1,experiment,sitting,2,39,noswitch,congruant,dashed,triangle,yellow,left,left,yes,1.3486871719360352
1000,1,1,experiment,sitting,2,40,switch,congruant,solid,triangle,blue,left,left,yes,0.6875960826873779
1000,1,1,experiment,sitting,2,41,switch,congruant,dashed,triangle,blue,left,left,yes,1.1107048988342283
1000,1,1,experiment,sitting,2,42,switch,incongruant,solid,triangle,yellow,right,right,yes,0.952286958694458
1000,1,1,experiment,sitting,2,43,switch,congruant,dashed,square,yellow,right,right,yes,0.6157329082489014
1000,1,1,experiment,sitting,2,44,switch,incongruant,solid,square,blue,left,left,yes,0.6750881671905518
1000,1,1,experiment,sitting,2,45,switch,congruant,dashed,triangle,yellow,right,left,no,0.6885900497436523
1000,1,1,experiment,sitting,2,46,noswitch,incongruant,dashed,square,yellow,left,right,no,1.3993499279022217
1000,1,1,experiment,sitting,2,47,switch,congruant,solid,triangle,yellow,left,right,no,0.640570878982544
1000,1,1,experiment,sitting,2,48,switch,congruant,dashed,square,yellow,right,right,yes,0.9244160652160645
1000,1,1,experiment,sitting,2,49,noswitch,congruant,dashed,square,yellow,right,right,yes,1.0865418910980225
1000,1,1,experiment,sitting,3,1,buffer,buffer,dashed,square,yellow,right,right,yes,0.7710840702056885
1000,1,1,experiment,sitting,3,2,noswitch,incongruant,dashed,triangle,blue,left,left,yes,1.354051113128662
1000,1,1,experiment,sitting,3,3,noswitch,congruant,dashed,triangle,blue,left,left,yes,0.7786350250244141
1000,1,1,experiment,sitting,3,4,switch,incongruant,solid,square,yellow,right,right,yes,0.4688198566436768
1000,1,1,experiment,sitting,3,5,switch,incongruant,dashed,triangle,blue,left,left,yes,0.8720860481262207
1000,1,1,experiment,sitting,3,6,switch,congruant,solid,square,blue,left,left,yes,0.7654309272766113
1000,1,1,experiment,sitting,3,7,switch,incongruant,dashed,square,blue,right,right,yes,1.0365121364593506
1000,1,1,experiment,sitting,3,8,noswitch,incongruant,dashed,triangle,yellow,left,left,yes,0.7521400451660156
1000,1,1,experiment,sitting,3,9,noswitch,incongruant,dashed,square,yellow,right,right,yes,1.0111188888549805
1000,1,1,experiment,sitting,3,10,switch,congruant,solid,triangle,yellow,right,right,yes,0.6950550079345703
1000,1,1,experiment,sitting,3,11,noswitch,incongruant,solid,square,blue,right,left,no,0.9914669990539552
1000,1,1,experiment,sitting,3,12,switch,congruant,dashed,triangle,yellow,left,left,yes,0.5424139499664307
1000,1,1,experiment,sitting,3,13,noswitch,incongruant,dashed,square,blue,left,right,no,0.643967866897583
1000,1,1,experiment,sitting,3,14,switch,congruant,solid,square,yellow,right,right,yes,1.2728240489959717
1000,1,1,experiment,sitting,3,15,noswitch,congruant,solid,square,yellow,right,right,yes,0.40110182762146
1000,1,1,experiment,sitting,3,16,switch,incongruant,dashed,triangle,blue,left,left,yes,0.7106008529663086
1000,1,1,experiment,sitting,3,17,noswitch,congruant,dashed,triangle,yellow,left,left,yes,0.7967720031738281
1000,1,1,experiment,sitting,3,18,switch,congruant,solid,triangle,blue,left,left,yes,0.7155709266662598
1000,1,1,experiment,sitting,3,19,switch,incongruant,dashed,square,blue,right,right,yes,0.9220299720764159
1000,1,1,experiment,sitting,3,20,noswitch,congruant,dashed,square,yellow,right,right,yes,0.6889200210571289
1000,1,1,experiment,sitting,3,21,switch,congruant,solid,triangle,yellow,left,right,no,0.7441442012786865
1000,1,1,experiment,sitting,3,22,noswitch,incongruant,solid,triangle,blue,left,left,yes,1.2663278579711914
1000,1,1,experiment,sitting,3,23,switch,incongruant,dashed,square,yellow,right,right,yes,0.7495648860931396
1000,1,1,experiment,sitting,3,24,switch,incongruant,solid,square,blue,left,left,yes,0.915057897567749
1000,1,1,experiment,sitting,3,25,switch,congruant,dashed,triangle,yellow,left,left,yes,0.8684349060058594
1000,1,1,experiment,sitting,3,26,switch,incongruant,solid,triangle,yellow,right,right,yes,1.381929874420166
1000,1,1,experiment,sitting,3,27,noswitch,congruant,solid,triangle,yellow,right,right,yes,0.6496200561523438
1000,1,1,experiment,sitting,3,28,noswitch,incongruant,solid,triangle,blue,left,left,yes,0.6737298965454102
1000,1,1,experiment,sitting,3,29,switch,incongruant,dashed,square,blue,right,right,yes,0.9290759563446044
1000,1,1,experiment,sitting,3,30,switch,incongruant,solid,triangle,blue,right,left,no,1.3050069808959959
1000,1,1,experiment,sitting,3,31,noswitch,congruant,solid,square,blue,left,left,yes,0.7724609375
1000,1,1,experiment,sitting,3,32,noswitch,congruant,solid,triangle,blue,left,left,yes,0.5257170200347899
1000,1,1,experiment,sitting,3,33,switch,congruant,dashed,triangle,yellow,left,left,yes,0.6916160583496094
1000,1,1,experiment,sitting,3,34,switch,congruant,solid,square,blue,left,left,yes,1.2017579078674316
1000,1,1,experiment,sitting,3,35,switch,incongruant,dashed,square,yellow,right,right,yes,1.29590106010437
1000,1,1,experiment,sitting,3,36,noswitch,incongruant,dashed,triangle,blue,left,left,yes,0.5761919021606445
1000,1,1,experiment,sitting,3,37,noswitch,incongruant,dashed,square,blue,right,right,yes,0.5102939605712891
1000,1,1,experiment,sitting,3,38,noswitch,congruant,dashed,square,blue,right,right,yes,0.6447358131408691
1000,1,1,experiment,sitting,3,39,switch,congruant,solid,square,yellow,left,right,no,1.4197220802307131
1000,1,1,experiment,sitting,3,40,noswitch,congruant,solid,square,yellow,right,right,yes,1.095707893371582
1000,1,1,experiment,sitting,3,41,noswitch,congruant,solid,triangle,yellow,right,right,yes,0.5015239715576172
1000,1,1,experiment,sitting,3,42,switch,congruant,dashed,square,yellow,right,right,yes,1.001356840133667
1000,1,1,experiment,sitting,3,43,noswitch,incongruant,dashed,triangle,yellow,right,left,no,0.5353078842163086
1000,1,1,experiment,sitting,3,44,noswitch,congruant,dashed,triangle,blue,left,left,yes,0.6471080780029297
1000,1,1,experiment,sitting,3,45,switch,congruant,solid,square,blue,left,left,yes,1.1042399406433103
1000,1,1,experiment,sitting,3,46,noswitch,incongruant,solid,square,yellow,right,right,yes,0.941594123840332
1000,1,1,experiment,sitting,3,47,noswitch,congruant,solid,triangle,yellow,right,right,yes,0.9992380142211914
1000,1,1,experiment,sitting,3,48,noswitch,incongruant,solid,triangle,blue,left,left,yes,0.5237689018249512
1000,1,1,experiment,sitting,3,49,switch,incongruant,dashed,square,yellow,right,right,yes,0.6117169857025146
1000,1,1,experiment,sitting,4,1,buffer,buffer,solid,triangle,blue,left,left,yes,0.7705860137939453
1000,1,1,experiment,sitting,4,2,switch,congruant,dashed,triangle,yellow,left,left,yes,0.7021090984344482
1000,1,1,experiment,sitting,4,3,switch,congruant,solid,square,blue,right,left,no,0.7609179019927979
1000,1,1,experiment,sitting,4,4,switch,incongruant,dashed,square,yellow,right,right,yes,0.4800269603729248
1000,1,1,experiment,sitting,4,5,switch,congruant,solid,square,yellow,right,right,yes,0.9765210151672364
1000,1,1,experiment,sitting,4,6,noswitch,congruant,solid,triangle,yellow,right,right,yes,0.5302770137786865
1000,1,1,experiment,sitting,4,7,switch,incongruant,dashed,triangle,blue,left,left,yes,0.7561259269714355
1000,1,1,experiment,sitting,4,8,switch,incongruant,solid,triangle,yellow,right,right,yes,1.2895328998565674
1000,1,1,experiment,sitting,4,9,noswitch,incongruant,solid,square,blue,left,left,yes,0.478856086730957
1000,1,1,experiment,sitting,4,10,switch,incongruant,dashed,square,blue,right,right,yes,0.6840569972991943
1000,1,1,experiment,sitting,4,11,noswitch,congruant,dashed,square,yellow,right,right,yes,0.5713798999786377
1000,1,1,experiment,sitting,4,12,noswitch,congruant,dashed,square,yellow,right,right,yes,0.5853691101074219
1000,1,1,experiment,sitting,4,13,noswitch,incongruant,dashed,triangle,blue,left,left,yes,0.6363749504089355
1000,1,1,experiment,sitting,4,14,switch,congruant,solid,triangle,blue,left,left,yes,0.5681610107421875
1000,1,1,experiment,sitting,4,15,noswitch,congruant,solid,triangle,blue,left,left,yes,0.6274728775024414
1000,1,1,experiment,sitting,4,16,noswitch,incongruant,solid,square,yellow,right,right,yes,1.0211319923400881
1000,1,1,experiment,sitting,4,17,noswitch,congruant,solid,triangle,yellow,right,right,yes,0.7314109802246094
1000,1,1,experiment,sitting,4,18,switch,incongruant,dashed,triangle,blue,left,left,yes,0.6608428955078125
1000,1,1,experiment,sitting,4,19,switch,incongruant,solid,square,yellow,right,right,yes,0.7102930545806885
1000,1,1,experiment,sitting,4,20,switch,incongruant,dashed,triangle,blue,left,left,yes,0.6983909606933594
1000,1,1,experiment,sitting,4,21,switch,congruant,solid,square,blue,left,left,yes,1.2415828704833984
1000,1,1,experiment,sitting,4,22,noswitch,congruant,solid,square,blue,left,left,yes,0.7089219093322754
1000,1,1,experiment,sitting,4,23,switch,congruant,dashed,triangle,yellow,left,left,yes,0.7599129676818848
1000,1,1,experiment,sitting,4,24,switch,congruant,solid,square,blue,left,left,yes,1.0484299659729004
1000,1,1,experiment,sitting,4,25,noswitch,congruant,solid,triangle,blue,left,left,yes,0.5593500137329102
1000,1,1,experiment,sitting,4,26,switch,congruant,dashed,triangle,blue,left,left,yes,0.8719809055328369
1000,1,1,experiment,sitting,4,27,noswitch,incongruant,dashed,square,blue,left,right,no,1.158430099487305
1000,1,1,experiment,sitting,4,28,noswitch,incongruant,dashed,triangle,blue,left,left,yes,0.5087289810180664
1000,1,1,experiment,sitting,4,29,noswitch,incongruant,dashed,square,blue,right,right,yes,0.9328792095184326
1000,1,1,experiment,sitting,4,30,noswitch,incongruant,dashed,triangle,yellow,left,left,yes,0.9944851398468018
1000,1,1,experiment,sitting,4,31,noswitch,incongruant,dashed,square,blue,right,right,yes,0.6342499256134033
1000,1,1,experiment,sitting,4,32,noswitch,congruant,dashed,square,yellow,right,right,yes,0.5803871154785156
1000,1,1,experiment,sitting,4,33,switch,congruant,solid,triangle,yellow,right,right,yes,0.5757150650024414
1000,1,1,experiment,sitting,4,34,switch,incongruant,dashed,triangle,yellow,left,left,yes,0.6378030776977539
1000,1,1,experiment,sitting,4,35,switch,incongruant,solid,triangle,yellow,left,right,no,0.93298602104187
1000,1,1,experiment,sitting,4,36,noswitch,incongruant,solid,triangle,blue,left,left,yes,1.0018959045410156
1000,1,1,experiment,sitting,4,37,noswitch,incongruant,solid,square,yellow,right,right,yes,0.6337170600891113
1000,1,1,experiment,sitting,4,38,noswitch,congruant,solid,square,yellow,right,right,yes,0.809035062789917
1000,1,1,experiment,sitting,4,39,switch,incongruant,dashed,triangle,yellow,left,left,yes,0.988128900527954
1000,1,1,experiment,sitting,4,40,noswitch,incongruant,dashed,square,blue,right,right,yes,0.9664218425750732
1000,1,1,experiment,sitting,4,41,noswitch,congruant,dashed,square,yellow,right,right,yes,0.6344759464263916
1000,1,1,experiment,sitting,4,42,switch,congruant,solid,square,yellow,right,right,yes,0.4899170398712158
1000,1,1,experiment,sitting,4,43,noswitch,congruant,solid,triangle,yellow,right,right,yes,0.4699480533599854
1000,1,1,experiment,sitting,4,44,switch,congruant,dashed,square,yellow,right,right,yes,0.9088201522827148
1000,1,1,experiment,sitting,4,45,switch,incongruant,solid,square,blue,left,left,yes,0.9851310253143309
1000,1,1,experiment,sitting,4,46,switch,incongruant,dashed,square,blue,timeout,right,no,
1000,1,1,experiment,sitting,4,47,noswitch,incongruant,dashed,triangle,yellow,left,left,yes,0.8790850639343262
1000,1,1,experiment,sitting,4,48,switch,congruant,solid,triangle,blue,left,left,yes,1.2279369831085205
1000,1,1,experiment,sitting,4,49,noswitch,congruant,solid,triangle,blue,left,left,yes,0.8106739521026611
