participant,session,condition,trialType,posture,blockNum,trialNum,switchTrialType,congruantTrialType,cueType,shapeType,shapeColor,response,correctResponse,correct,reactionTime,date
8000,1,2,experiment,standing,1,1,buffer,buffer,dashed,square,yellow,left,left,yes,0.5576119422912598,2021-11-04 14:46:00
8000,1,2,experiment,standing,1,2,noswitch,incongruant,dashed,triangle,blue,right,right,yes,0.3171839714050293,2021-11-04 14:46:00
8000,1,2,experiment,standing,1,3,noswitch,incongruant,dashed,square,yellow,left,left,yes,0.4910979270935058,2021-11-04 14:46:00
8000,1,2,experiment,standing,1,4,switch,congruant,solid,triangle,blue,right,left,no,0.8541290760040283,2021-11-04 14:46:00
8000,1,2,experiment,standing,1,5,switch,incongruant,dashed,triangle,yellow,left,right,no,0.7613379955291748,2021-11-04 14:46:00
8000,1,2,experiment,standing,1,6,switch,congruant,solid,square,yellow,left,right,no,0.8339180946350098,2021-11-04 14:46:00
8000,1,2,experiment,standing,1,7,switch,congruant,dashed,triangle,yellow,right,right,yes,0.8521249294281006,2021-11-04 14:46:00
8000,1,2,experiment,standing,1,8,noswitch,incongruant,dashed,square,yellow,left,left,yes,0.3781638145446777,2021-11-04 14:46:00
8000,1,2,experiment,standing,1,9,noswitch,congruant,dashed,square,blue,left,left,yes,0.7749080657958984,2021-11-04 14:46:00
8000,1,2,experiment,standing,1,10,noswitch,incongruant,dashed,triangle,yellow,right,right,yes,0.3068180084228515,2021-11-04 14:46:00
8000,1,2,experiment,standing,1,11,switch,congruant,solid,triangle,yellow,right,right,yes,0.6767261028289795,2021-11-04 14:46:00
8000,1,2,experiment,standing,1,12,switch,congruant,dashed,triangle,blue,right,right,yes,0.6798169612884521,2021-11-04 14:46:00
8000,1,2,experiment,standing,1,13,switch,congruant,solid,triangle,yellow,left,right,no,0.8162729740142822,2021-11-04 14:46:00
8000,1,2,experiment,standing,1,14,switch,congruant,dashed,triangle,blue,right,right,yes,0.845736026763916,2021-11-04 14:46:00
8000,1,2,experiment,standing,1,15,noswitch,congruant,dashed,triangle,blue,right,right,yes,0.4762358665466308,2021-11-04 14:46:00
8000,1,2,experiment,standing,1,16,noswitch,incongruant,dashed,square,yellow,left,left,yes,0.7238869667053223,2021-11-04 14:46:00
8000,1,2,experiment,standing,1,17,switch,congruant,solid,square,blue,timeout,left,no,,2021-11-04 14:46:00
8000,1,2,experiment,standing,1,18,noswitch,incongruant,solid,square,yellow,left,right,no,1.3241510391235352,2021-11-04 14:46:00
8000,1,2,experiment,standing,1,19,noswitch,congruant,solid,square,yellow,left,right,no,0.8205099105834961,2021-11-04 14:46:00
8000,1,2,experiment,standing,1,20,switch,congruant,dashed,triangle,blue,timeout,right,no,,2021-11-04 14:46:00
8000,1,2,experiment,standing,1,21,noswitch,incongruant,dashed,square,yellow,left,left,yes,0.6910910606384277,2021-11-04 14:46:00
8000,1,2,experiment,standing,1,22,switch,incongruant,solid,triangle,yellow,right,right,yes,0.4876360893249511,2021-11-04 14:46:00
8000,1,2,experiment,standing,1,23,switch,congruant,dashed,triangle,yellow,right,right,yes,0.5649988651275635,2021-11-04 14:46:00
8000,1,2,experiment,standing,1,24,switch,congruant,solid,triangle,yellow,right,right,yes,0.6301250457763672,2021-11-04 14:46:00
8000,1,2,experiment,standing,1,25,noswitch,incongruant,solid,square,blue,left,left,yes,0.6006500720977783,2021-11-04 14:46:00
8000,1,2,experiment,standing,1,26,switch,incongruant,dashed,triangle,yellow,right,right,yes,0.5162479877471924,2021-11-04 14:46:00
8000,1,2,experiment,standing,1,27,noswitch,incongruant,dashed,square,yellow,left,left,yes,1.2662849426269531,2021-11-04 14:46:00
8000,1,2,experiment,standing,1,28,switch,incongruant,solid,triangle,yellow,right,right,yes,0.7829380035400391,2021-11-04 14:46:00
8000,1,2,experiment,standing,1,29,switch,incongruant,dashed,square,blue,left,left,yes,0.8403348922729492,2021-11-04 14:46:00
8000,1,2,experiment,standing,1,30,switch,incongruant,solid,square,yellow,right,right,yes,0.9189720153808594,2021-11-04 14:46:00
8000,1,2,experiment,standing,1,31,noswitch,incongruant,solid,square,blue,left,left,yes,1.066615104675293,2021-11-04 14:46:00
8000,1,2,experiment,standing,1,32,noswitch,congruant,solid,square,blue,left,left,yes,0.5760118961334229,2021-11-04 14:46:00
8000,1,2,experiment,standing,1,33,switch,congruant,dashed,square,yellow,left,left,yes,1.041363000869751,2021-11-04 14:46:00
8000,1,2,experiment,standing,1,34,noswitch,congruant,dashed,square,blue,left,left,yes,0.5012331008911133,2021-11-04 14:46:00
8000,1,2,experiment,standing,1,35,switch,incongruant,solid,square,yellow,left,right,no,0.6339521408081055,2021-11-04 14:46:00
8000,1,2,experiment,standing,1,36,noswitch,incongruant,solid,triangle,blue,right,left,no,1.221557855606079,2021-11-04 14:46:00
8000,1,2,experiment,standing,1,37,switch,incongruant,dashed,triangle,yellow,left,right,no,1.2200109958648682,2021-11-04 14:46:00
8000,1,2,experiment,standing,1,38,switch,incongruant,solid,triangle,blue,right,left,no,1.3416619300842283,2021-11-04 14:46:00
8000,1,2,experiment,standing,1,39,noswitch,congruant,solid,square,blue,left,left,yes,1.350247859954834,2021-11-04 14:46:00
8000,1,2,experiment,standing,1,40,switch,incongruant,dashed,triangle,blue,right,right,yes,0.4333639144897461,2021-11-04 14:46:00
8000,1,2,experiment,standing,1,41,noswitch,incongruant,dashed,square,blue,left,left,yes,1.4301378726959229,2021-11-04 14:46:00
8000,1,2,experiment,standing,1,42,noswitch,congruant,dashed,square,blue,left,left,yes,0.7014789581298828,2021-11-04 14:46:00
8000,1,2,experiment,standing,1,43,switch,congruant,solid,triangle,blue,left,left,yes,1.3153791427612305,2021-11-04 14:46:00
8000,1,2,experiment,standing,1,44,noswitch,congruant,solid,square,blue,left,left,yes,0.6376569271087646,2021-11-04 14:46:00
8000,1,2,experiment,standing,1,45,noswitch,incongruant,solid,triangle,yellow,right,right,yes,0.764240026473999,2021-11-04 14:46:00
8000,1,2,experiment,standing,1,46,noswitch,congruant,solid,square,yellow,right,right,yes,0.5130829811096191,2021-11-04 14:46:00
8000,1,2,experiment,standing,1,47,noswitch,incongruant,solid,triangle,blue,left,left,yes,1.0919840335845947,2021-11-04 14:46:00
8000,1,2,experiment,standing,1,48,noswitch,congruant,solid,triangle,blue,left,left,yes,0.564298152923584,2021-11-04 14:46:00
8000,1,2,experiment,standing,1,49,switch,congruant,dashed,square,blue,left,left,yes,0.7543530464172363,2021-11-04 14:46:00
8000,1,2,experiment,standing,2,1,buffer,buffer,dashed,square,blue,left,left,yes,0.9916629791259766,2021-11-04 14:46:00
8000,1,2,experiment,standing,2,2,noswitch,congruant,dashed,square,blue,left,left,yes,0.3619811534881592,2021-11-04 14:46:00
8000,1,2,experiment,standing,2,3,noswitch,congruant,dashed,square,yellow,left,left,yes,1.125821828842163,2021-11-04 14:46:00
8000,1,2,experiment,standing,2,4,noswitch,incongruant,dashed,triangle,blue,right,right,yes,0.6769208908081055,2021-11-04 14:46:00
8000,1,2,experiment,standing,2,5,noswitch,congruant,dashed,triangle,yellow,right,right,yes,0.5793731212615967,2021-11-04 14:46:00
8000,1,2,experiment,standing,2,6,switch,congruant,solid,square,yellow,left,right,no,1.0805728435516355,2021-11-04 14:46:00
8000,1,2,experiment,standing,2,7,noswitch,incongruant,solid,triangle,blue,right,left,no,0.6699659824371338,2021-11-04 14:46:00
8000,1,2,experiment,standing,2,8,switch,congruant,dashed,square,yellow,left,left,yes,0.4824569225311279,2021-11-04 14:46:00
8000,1,2,experiment,standing,2,9,noswitch,incongruant,dashed,triangle,blue,right,right,yes,0.5977249145507812,2021-11-04 14:46:00
8000,1,2,experiment,standing,2,10,switch,congruant,solid,triangle,yellow,right,right,yes,0.5113980770111084,2021-11-04 14:46:00
8000,1,2,experiment,standing,2,11,noswitch,incongruant,solid,triangle,blue,left,left,yes,0.8723480701446533,2021-11-04 14:46:00
8000,1,2,experiment,standing,2,12,noswitch,incongruant,solid,square,yellow,right,right,yes,0.8350770473480225,2021-11-04 14:46:00
8000,1,2,experiment,standing,2,13,switch,congruant,dashed,triangle,blue,left,right,no,1.0493249893188477,2021-11-04 14:46:00
8000,1,2,experiment,standing,2,14,switch,incongruant,solid,square,blue,left,left,yes,0.7901477813720703,2021-11-04 14:46:00
8000,1,2,experiment,standing,2,15,noswitch,incongruant,solid,square,yellow,left,right,no,0.7357420921325684,2021-11-04 14:46:00
8000,1,2,experiment,standing,2,16,noswitch,incongruant,solid,triangle,blue,right,left,no,1.2189068794250488,2021-11-04 14:46:00
8000,1,2,experiment,standing,2,17,switch,congruant,dashed,square,yellow,left,left,yes,0.6756448745727539,2021-11-04 14:46:00
8000,1,2,experiment,standing,2,18,switch,congruant,solid,triangle,blue,right,left,no,1.033613920211792,2021-11-04 14:46:00
8000,1,2,experiment,standing,2,19,switch,congruant,dashed,square,yellow,left,left,yes,0.6958670616149902,2021-11-04 14:46:00
8000,1,2,experiment,standing,2,20,noswitch,incongruant,dashed,triangle,yellow,right,right,yes,0.5839970111846924,2021-11-04 14:46:00
8000,1,2,experiment,standing,2,21,noswitch,congruant,dashed,triangle,blue,right,right,yes,0.4956052303314209,2021-11-04 14:46:00
8000,1,2,experiment,standing,2,22,switch,incongruant,solid,square,blue,left,left,yes,0.9237079620361328,2021-11-04 14:46:00
8000,1,2,experiment,standing,2,23,noswitch,congruant,solid,square,blue,left,left,yes,0.6836209297180176,2021-11-04 14:46:00
8000,1,2,experiment,standing,2,24,switch,congruant,dashed,square,blue,left,left,yes,0.5338730812072754,2021-11-04 14:46:00
8000,1,2,experiment,standing,2,25,noswitch,incongruant,dashed,triangle,yellow,left,right,no,1.2913901805877686,2021-11-04 14:46:00
8000,1,2,experiment,standing,2,26,switch,congruant,solid,square,yellow,left,right,no,1.2980868816375732,2021-11-04 14:46:00
8000,1,2,experiment,standing,2,27,switch,incongruant,dashed,square,yellow,timeout,left,no,,2021-11-04 14:46:00
8000,1,2,experiment,standing,2,28,switch,congruant,solid,square,blue,right,left,no,1.1427819728851318,2021-11-04 14:46:00
8000,1,2,experiment,standing,2,29,switch,congruant,dashed,square,blue,left,left,yes,0.7641251087188721,2021-11-04 14:46:00
8000,1,2,experiment,standing,2,30,switch,congruant,solid,triangle,blue,left,left,yes,1.162653923034668,2021-11-04 14:46:00
8000,1,2,experiment,standing,2,31,switch,congruant,dashed,square,blue,left,left,yes,0.8331899642944336,2021-11-04 14:46:00
8000,1,2,experiment,standing,2,32,switch,incongruant,solid,triangle,yellow,right,right,yes,0.7536478042602539,2021-11-04 14:46:00
8000,1,2,experiment,standing,2,33,switch,incongruant,dashed,square,blue,left,left,yes,0.9766180515289308,2021-11-04 14:46:00
8000,1,2,experiment,standing,2,34,switch,incongruant,solid,square,yellow,left,right,no,0.7755928039550781,2021-11-04 14:46:00
8000,1,2,experiment,standing,2,35,noswitch,congruant,solid,triangle,yellow,right,right,yes,0.7117030620574951,2021-11-04 14:46:00
8000,1,2,experiment,standing,2,36,noswitch,congruant,solid,triangle,yellow,right,right,yes,0.5846130847930908,2021-11-04 14:46:00
8000,1,2,experiment,standing,2,37,noswitch,incongruant,solid,square,blue,left,left,yes,0.5910170078277588,2021-11-04 14:46:00
8000,1,2,experiment,standing,2,38,switch,incongruant,dashed,triangle,yellow,right,right,yes,0.8440380096435547,2021-11-04 14:46:00
8000,1,2,experiment,standing,2,39,noswitch,congruant,dashed,triangle,blue,right,right,yes,0.5029911994934082,2021-11-04 14:46:00
8000,1,2,experiment,standing,2,40,switch,incongruant,solid,square,blue,left,left,yes,0.8373978137969971,2021-11-04 14:46:00
8000,1,2,experiment,standing,2,41,noswitch,incongruant,solid,triangle,yellow,right,right,yes,0.6583499908447266,2021-11-04 14:46:00
8000,1,2,experiment,standing,2,42,switch,congruant,dashed,triangle,yellow,right,right,yes,0.4621140956878662,2021-11-04 14:46:00
8000,1,2,experiment,standing,2,43,noswitch,congruant,dashed,triangle,yellow,right,right,yes,0.7411630153656006,2021-11-04 14:46:00
8000,1,2,experiment,standing,2,44,noswitch,incongruant,dashed,square,yellow,left,left,yes,0.3627898693084717,2021-11-04 14:46:00
8000,1,2,experiment,standing,2,45,switch,incongruant,solid,triangle,yellow,right,right,yes,1.3080589771270752,2021-11-04 14:46:00
8000,1,2,experiment,standing,2,46,noswitch,congruant,solid,square,yellow,left,right,no,0.8089518547058105,2021-11-04 14:46:00
8000,1,2,experiment,standing,2,47,noswitch,incongruant,solid,triangle,blue,right,left,no,1.2832539081573486,2021-11-04 14:46:00
8000,1,2,experiment,standing,2,48,switch,incongruant,dashed,triangle,blue,left,right,no,0.9771249294281006,2021-11-04 14:46:00
8000,1,2,experiment,standing,2,49,noswitch,incongruant,dashed,square,blue,left,left,yes,0.771881103515625,2021-11-04 14:46:00
8000,1,2,experiment,standing,3,1,buffer,buffer,dashed,square,blue,left,left,yes,0.914984941482544,2021-11-04 14:46:00
8000,1,2,experiment,standing,3,2,noswitch,congruant,dashed,square,blue,left,left,yes,0.3059639930725097,2021-11-04 14:46:00
8000,1,2,experiment,standing,3,3,noswitch,incongruant,dashed,triangle,blue,right,right,yes,0.5326168537139893,2021-11-04 14:46:00
8000,1,2,experiment,standing,3,4,switch,incongruant,solid,square,blue,left,left,yes,0.5951430797576904,2021-11-04 14:46:00
8000,1,2,experiment,standing,3,5,switch,incongruant,dashed,triangle,yellow,right,right,yes,0.7394120693206787,2021-11-04 14:46:00
8000,1,2,experiment,standing,3,6,noswitch,congruant,dashed,triangle,blue,right,right,yes,0.4233040809631347,2021-11-04 14:46:00
8000,1,2,experiment,standing,3,7,noswitch,congruant,dashed,triangle,yellow,right,right,yes,0.506721019744873,2021-11-04 14:46:00
8000,1,2,experiment,standing,3,8,noswitch,incongruant,dashed,square,blue,left,left,yes,0.2833149433135986,2021-11-04 14:46:00
8000,1,2,experiment,standing,3,9,switch,congruant,solid,triangle,blue,right,left,no,0.84440016746521,2021-11-04 14:46:00
8000,1,2,experiment,standing,3,10,switch,congruant,dashed,square,yellow,left,left,yes,0.7755448818206787,2021-11-04 14:46:00
8000,1,2,experiment,standing,3,11,switch,incongruant,solid,triangle,yellow,right,right,yes,0.6286971569061279,2021-11-04 14:46:00
8000,1,2,experiment,standing,3,12,noswitch,congruant,solid,triangle,yellow,right,right,yes,0.6128599643707275,2021-11-04 14:46:00
8000,1,2,experiment,standing,3,13,switch,congruant,dashed,triangle,blue,right,right,yes,0.6915240287780762,2021-11-04 14:46:00
8000,1,2,experiment,standing,3,14,noswitch,congruant,dashed,triangle,yellow,right,right,yes,0.470146894454956,2021-11-04 14:46:00
8000,1,2,experiment,standing,3,15,switch,incongruant,solid,square,blue,left,left,yes,0.5865399837493896,2021-11-04 14:46:00
8000,1,2,experiment,standing,3,16,switch,congruant,dashed,square,blue,left,left,yes,0.6452200412750244,2021-11-04 14:46:00
8000,1,2,experiment,standing,3,17,noswitch,incongruant,dashed,triangle,yellow,right,right,yes,0.3112449645996094,2021-11-04 14:46:00
8000,1,2,experiment,standing,3,18,switch,incongruant,solid,triangle,blue,left,left,yes,1.151993989944458,2021-11-04 14:46:00
8000,1,2,experiment,standing,3,19,noswitch,congruant,solid,square,blue,left,left,yes,0.3936090469360351,2021-11-04 14:46:00
8000,1,2,experiment,standing,3,20,switch,congruant,dashed,square,yellow,left,left,yes,1.0394508838653564,2021-11-04 14:46:00
8000,1,2,experiment,standing,3,21,switch,incongruant,solid,triangle,yellow,right,right,yes,1.044044017791748,2021-11-04 14:46:00
8000,1,2,experiment,standing,3,22,noswitch,congruant,solid,triangle,yellow,right,right,yes,0.5564229488372803,2021-11-04 14:46:00
8000,1,2,experiment,standing,3,23,noswitch,incongruant,solid,triangle,blue,right,left,no,0.6812410354614258,2021-11-04 14:46:00
8000,1,2,experiment,standing,3,24,noswitch,incongruant,solid,square,yellow,left,right,no,0.8333480358123779,2021-11-04 14:46:00
8000,1,2,experiment,standing,3,25,switch,incongruant,dashed,square,yellow,left,left,yes,0.8821828365325928,2021-11-04 14:46:00
8000,1,2,experiment,standing,3,26,switch,incongruant,solid,square,yellow,right,right,yes,1.1563990116119385,2021-11-04 14:46:00
8000,1,2,experiment,standing,3,27,switch,congruant,dashed,triangle,blue,left,right,no,0.9157211780548096,2021-11-04 14:46:00
8000,1,2,experiment,standing,3,28,noswitch,congruant,dashed,triangle,yellow,right,right,yes,0.6104228496551514,2021-11-04 14:46:00
8000,1,2,experiment,standing,3,29,switch,congruant,solid,triangle,yellow,right,right,yes,0.957651138305664,2021-11-04 14:46:00
8000,1,2,experiment,standing,3,30,noswitch,congruant,solid,square,yellow,left,right,no,0.905116081237793,2021-11-04 14:46:00
8000,1,2,experiment,standing,3,31,noswitch,incongruant,solid,triangle,blue,right,left,no,1.4282798767089844,2021-11-04 14:46:00
8000,1,2,experiment,standing,3,32,switch,congruant,dashed,square,blue,left,left,yes,1.121563196182251,2021-11-04 14:46:00
8000,1,2,experiment,standing,3,33,noswitch,congruant,dashed,square,blue,left,left,yes,0.4525721073150635,2021-11-04 14:46:00
8000,1,2,experiment,standing,3,34,noswitch,congruant,dashed,square,yellow,timeout,left,no,,2021-11-04 14:46:00
8000,1,2,experiment,standing,3,35,switch,congruant,solid,triangle,blue,timeout,left,no,,2021-11-04 14:46:00
8000,1,2,experiment,standing,3,36,switch,congruant,dashed,square,yellow,left,left,yes,0.3939340114593506,2021-11-04 14:46:00
8000,1,2,experiment,standing,3,37,switch,incongruant,solid,square,yellow,right,right,yes,0.8805079460144043,2021-11-04 14:46:00
8000,1,2,experiment,standing,3,38,noswitch,incongruant,solid,triangle,blue,left,left,yes,0.941781997680664,2021-11-04 14:46:00
8000,1,2,experiment,standing,3,39,switch,incongruant,dashed,triangle,yellow,right,right,yes,0.9667129516601562,2021-11-04 14:46:00
8000,1,2,experiment,standing,3,40,noswitch,incongruant,dashed,square,blue,left,left,yes,0.8882608413696289,2021-11-04 14:46:00
8000,1,2,experiment,standing,3,41,noswitch,incongruant,dashed,triangle,blue,right,right,yes,0.4008669853210449,2021-11-04 14:46:00
8000,1,2,experiment,standing,3,42,switch,congruant,solid,square,yellow,left,right,no,0.9883708953857422,2021-11-04 14:46:00
8000,1,2,experiment,standing,3,43,noswitch,incongruant,solid,square,blue,timeout,left,no,,2021-11-04 14:46:00
8000,1,2,experiment,standing,3,44,noswitch,incongruant,solid,triangle,yellow,right,right,yes,0.6506211757659912,2021-11-04 14:46:00
8000,1,2,experiment,standing,3,45,noswitch,congruant,solid,square,yellow,right,right,yes,0.5121438503265381,2021-11-04 14:46:00
8000,1,2,experiment,standing,3,46,noswitch,incongruant,solid,square,blue,left,left,yes,0.5999710559844971,2021-11-04 14:46:00
8000,1,2,experiment,standing,3,47,switch,incongruant,dashed,triangle,blue,right,right,yes,1.1446101665496826,2021-11-04 14:46:00
8000,1,2,experiment,standing,3,48,switch,incongruant,solid,square,blue,right,left,no,0.6878728866577148,2021-11-04 14:46:00
8000,1,2,experiment,standing,3,49,switch,congruant,dashed,square,yellow,left,left,yes,1.1752700805664062,2021-11-04 14:46:00
8000,1,2,experiment,standing,4,1,buffer,buffer,dashed,square,yellow,left,left,yes,0.895672082901001,2021-11-04 14:46:00
8000,1,2,experiment,standing,4,2,switch,congruant,solid,triangle,blue,left,left,yes,0.7375929355621338,2021-11-04 14:46:00
8000,1,2,experiment,standing,4,3,switch,incongruant,dashed,triangle,yellow,right,right,yes,0.5496699810028076,2021-11-04 14:46:00
8000,1,2,experiment,standing,4,4,switch,congruant,solid,square,yellow,left,right,no,0.9733970165252686,2021-11-04 14:46:00
8000,1,2,experiment,standing,4,5,switch,incongruant,dashed,square,yellow,left,left,yes,0.6201941967010498,2021-11-04 14:46:00
8000,1,2,experiment,standing,4,6,noswitch,congruant,dashed,square,yellow,left,left,yes,0.5764038562774658,2021-11-04 14:46:00
8000,1,2,experiment,standing,4,7,switch,incongruant,solid,square,yellow,left,right,no,0.9884839057922364,2021-11-04 14:46:00
8000,1,2,experiment,standing,4,8,switch,incongruant,dashed,square,yellow,left,left,yes,0.9143459796905518,2021-11-04 14:46:00
8000,1,2,experiment,standing,4,9,noswitch,congruant,dashed,square,blue,left,left,yes,0.5300948619842529,2021-11-04 14:46:00
8000,1,2,experiment,standing,4,10,noswitch,incongruant,dashed,triangle,blue,right,right,yes,0.4304249286651611,2021-11-04 14:46:00
8000,1,2,experiment,standing,4,11,noswitch,congruant,dashed,triangle,blue,right,right,yes,0.4361870288848877,2021-11-04 14:46:00
8000,1,2,experiment,standing,4,12,switch,congruant,solid,square,yellow,right,right,yes,1.1096880435943604,2021-11-04 14:46:00
8000,1,2,experiment,standing,4,13,noswitch,congruant,solid,triangle,yellow,right,right,yes,0.7826840877532959,2021-11-04 14:46:00
8000,1,2,experiment,standing,4,14,switch,congruant,dashed,triangle,yellow,right,right,yes,0.6201679706573486,2021-11-04 14:46:00
8000,1,2,experiment,standing,4,15,noswitch,congruant,dashed,triangle,blue,right,right,yes,0.3315920829772949,2021-11-04 14:46:00
8000,1,2,experiment,standing,4,16,switch,incongruant,solid,triangle,blue,right,left,no,0.4998009204864502,2021-11-04 14:46:00
8000,1,2,experiment,standing,4,17,switch,incongruant,dashed,triangle,blue,right,right,yes,1.084439039230347,2021-11-04 14:46:00
8000,1,2,experiment,standing,4,18,switch,incongruant,solid,square,blue,left,left,yes,0.6430320739746094,2021-11-04 14:46:00
8000,1,2,experiment,standing,4,19,noswitch,congruant,solid,square,blue,left,left,yes,0.4458088874816894,2021-11-04 14:46:00
8000,1,2,experiment,standing,4,20,noswitch,incongruant,solid,triangle,yellow,right,right,yes,0.7041831016540527,2021-11-04 14:46:00
8000,1,2,experiment,standing,4,21,noswitch,incongruant,solid,triangle,blue,left,left,yes,0.9230790138244628,2021-11-04 14:46:00
8000,1,2,experiment,standing,4,22,noswitch,incongruant,solid,square,yellow,right,right,yes,0.5587561130523682,2021-11-04 14:46:00
8000,1,2,experiment,standing,4,23,noswitch,congruant,solid,triangle,yellow,right,right,yes,0.4176108837127685,2021-11-04 14:46:00
8000,1,2,experiment,standing,4,24,switch,congruant,dashed,triangle,yellow,right,right,yes,0.8986170291900635,2021-11-04 14:46:00
8000,1,2,experiment,standing,4,25,switch,congruant,solid,triangle,yellow,right,right,yes,0.4840540885925293,2021-11-04 14:46:00
8000,1,2,experiment,standing,4,26,switch,incongruant,dashed,square,blue,left,left,yes,1.0633361339569092,2021-11-04 14:46:00
8000,1,2,experiment,standing,4,27,switch,congruant,solid,triangle,blue,left,left,yes,0.7513580322265625,2021-11-04 14:46:00
8000,1,2,experiment,standing,4,28,noswitch,congruant,solid,square,blue,left,left,yes,0.9181199073791504,2021-11-04 14:46:00
8000,1,2,experiment,standing,4,29,noswitch,congruant,solid,triangle,blue,left,left,yes,0.5921289920806885,2021-11-04 14:46:00
8000,1,2,experiment,standing,4,30,switch,incongruant,dashed,triangle,yellow,right,right,yes,0.5381269454956055,2021-11-04 14:46:00
8000,1,2,experiment,standing,4,31,noswitch,incongruant,dashed,square,yellow,left,left,yes,0.7363760471343994,2021-11-04 14:46:00
8000,1,2,experiment,standing,4,32,noswitch,incongruant,dashed,triangle,yellow,right,right,yes,0.8747859001159668,2021-11-04 14:46:00
8000,1,2,experiment,standing,4,33,noswitch,congruant,dashed,triangle,yellow,right,right,yes,0.4889469146728515,2021-11-04 14:46:00
8000,1,2,experiment,standing,4,34,switch,incongruant,solid,square,blue,left,left,yes,0.5365030765533447,2021-11-04 14:46:00
8000,1,2,experiment,standing,4,35,switch,congruant,dashed,square,blue,left,left,yes,0.7213799953460693,2021-11-04 14:46:00
8000,1,2,experiment,standing,4,36,noswitch,congruant,dashed,square,blue,left,left,yes,1.054095983505249,2021-11-04 14:46:00
8000,1,2,experiment,standing,4,37,switch,incongruant,solid,triangle,yellow,right,right,yes,1.107640027999878,2021-11-04 14:46:00
8000,1,2,experiment,standing,4,38,switch,incongruant,dashed,square,blue,left,left,yes,1.0716910362243652,2021-11-04 14:46:00
8000,1,2,experiment,standing,4,39,noswitch,incongruant,dashed,triangle,blue,right,right,yes,1.389186143875122,2021-11-04 14:46:00
8000,1,2,experiment,standing,4,40,noswitch,incongruant,dashed,square,yellow,left,left,yes,1.161796808242798,2021-11-04 14:46:00
8000,1,2,experiment,standing,4,41,noswitch,congruant,dashed,square,blue,left,left,yes,0.5176100730895996,2021-11-04 14:46:00
8000,1,2,experiment,standing,4,42,switch,congruant,solid,square,blue,left,left,yes,0.6677069664001465,2021-11-04 14:46:00
8000,1,2,experiment,standing,4,43,switch,incongruant,dashed,triangle,blue,right,right,yes,1.0329790115356443,2021-11-04 14:46:00
8000,1,2,experiment,standing,4,44,switch,congruant,solid,square,yellow,left,right,no,0.8241682052612305,2021-11-04 14:46:00
8000,1,2,experiment,standing,4,45,noswitch,incongruant,solid,square,blue,left,left,yes,0.898878812789917,2021-11-04 14:46:00
8000,1,2,experiment,standing,4,46,noswitch,incongruant,solid,triangle,yellow,right,right,yes,0.5763809680938721,2021-11-04 14:46:00
8000,1,2,experiment,standing,4,47,noswitch,congruant,solid,square,yellow,left,right,no,0.7069940567016602,2021-11-04 14:46:00
8000,1,2,experiment,standing,4,48,noswitch,incongruant,solid,triangle,blue,right,left,no,0.9019558429718018,2021-11-04 14:46:00
8000,1,2,experiment,standing,4,49,switch,congruant,dashed,square,yellow,timeout,left,no,,2021-11-04 14:46:00
8000,1,2,experiment,sitting,1,1,buffer,buffer,dashed,triangle,yellow,right,right,yes,0.7067999839782715,2021-11-04 14:46:00
8000,1,2,experiment,sitting,1,2,noswitch,incongruant,dashed,square,yellow,left,left,yes,0.3521299362182617,2021-11-04 14:46:00
8000,1,2,experiment,sitting,1,3,switch,congruant,solid,triangle,blue,left,left,yes,1.0065200328826904,2021-11-04 14:46:00
8000,1,2,experiment,sitting,1,4,noswitch,incongruant,solid,triangle,yellow,right,right,yes,0.3896870613098144,2021-11-04 14:46:00
8000,1,2,experiment,sitting,1,5,switch,congruant,dashed,triangle,yellow,right,right,yes,0.351254940032959,2021-11-04 14:46:00
8000,1,2,experiment,sitting,1,6,noswitch,incongruant,dashed,square,blue,left,left,yes,0.3555288314819336,2021-11-04 14:46:00
8000,1,2,experiment,sitting,1,7,switch,congruant,solid,square,blue,left,left,yes,0.5252599716186523,2021-11-04 14:46:00
8000,1,2,experiment,sitting,1,8,noswitch,congruant,solid,triangle,blue,left,left,yes,0.4519939422607422,2021-11-04 14:46:00
8000,1,2,experiment,sitting,1,9,noswitch,incongruant,solid,square,yellow,right,right,yes,0.9468281269073486,2021-11-04 14:46:00
8000,1,2,experiment,sitting,1,10,switch,congruant,dashed,triangle,blue,timeout,right,no,,2021-11-04 14:46:00
8000,1,2,experiment,sitting,1,11,switch,incongruant,solid,triangle,blue,left,left,yes,0.7265958786010742,2021-11-04 14:46:00
8000,1,2,experiment,sitting,1,12,noswitch,incongruant,solid,square,yellow,right,right,yes,0.4103360176086426,2021-11-04 14:46:00
8000,1,2,experiment,sitting,1,13,noswitch,congruant,solid,triangle,yellow,right,right,yes,0.7476089000701904,2021-11-04 14:46:00
8000,1,2,experiment,sitting,1,14,switch,congruant,dashed,triangle,yellow,right,right,yes,0.3194501399993896,2021-11-04 14:46:00
8000,1,2,experiment,sitting,1,15,noswitch,incongruant,dashed,square,yellow,left,left,yes,0.3382809162139892,2021-11-04 14:46:00
8000,1,2,experiment,sitting,1,16,noswitch,incongruant,dashed,triangle,blue,right,right,yes,0.2749428749084472,2021-11-04 14:46:00
8000,1,2,experiment,sitting,1,17,switch,incongruant,solid,triangle,blue,right,left,no,0.3724920749664306,2021-11-04 14:46:00
8000,1,2,experiment,sitting,1,18,switch,incongruant,dashed,triangle,yellow,right,right,yes,0.4119338989257812,2021-11-04 14:46:00
8000,1,2,experiment,sitting,1,19,switch,incongruant,solid,triangle,blue,left,left,yes,0.846992015838623,2021-11-04 14:46:00
8000,1,2,experiment,sitting,1,20,switch,congruant,dashed,square,blue,left,left,yes,1.1657278537750244,2021-11-04 14:46:00
8000,1,2,experiment,sitting,1,21,switch,incongruant,solid,triangle,yellow,right,right,yes,0.5168180465698242,2021-11-04 14:46:00
8000,1,2,experiment,sitting,1,22,noswitch,incongruant,solid,square,blue,left,left,yes,0.3570499420166015,2021-11-04 14:46:00
8000,1,2,experiment,sitting,1,23,noswitch,incongruant,solid,triangle,yellow,right,right,yes,0.427211046218872,2021-11-04 14:46:00
8000,1,2,experiment,sitting,1,24,noswitch,congruant,solid,square,yellow,right,right,yes,0.5091660022735596,2021-11-04 14:46:00
8000,1,2,experiment,sitting,1,25,noswitch,incongruant,solid,square,blue,left,left,yes,0.6504230499267578,2021-11-04 14:46:00
8000,1,2,experiment,sitting,1,26,switch,congruant,dashed,square,yellow,left,left,yes,1.1772780418395996,2021-11-04 14:46:00
8000,1,2,experiment,sitting,1,27,noswitch,congruant,dashed,square,blue,right,left,no,0.9482340812683104,2021-11-04 14:46:00
8000,1,2,experiment,sitting,1,28,noswitch,incongruant,dashed,triangle,blue,right,right,yes,0.9874532222747804,2021-11-04 14:46:00
8000,1,2,experiment,sitting,1,29,switch,congruant,solid,square,yellow,left,right,no,0.6512680053710938,2021-11-04 14:46:00
8000,1,2,experiment,sitting,1,30,switch,incongruant,dashed,square,blue,left,left,yes,0.7008359432220459,2021-11-04 14:46:00
8000,1,2,experiment,sitting,1,31,noswitch,congruant,dashed,square,yellow,left,left,yes,0.4739460945129394,2021-11-04 14:46:00
8000,1,2,experiment,sitting,1,32,noswitch,incongruant,dashed,triangle,blue,right,right,yes,0.2815179824829101,2021-11-04 14:46:00
8000,1,2,experiment,sitting,1,33,switch,incongruant,solid,square,blue,left,left,yes,0.716425895690918,2021-11-04 14:46:00
8000,1,2,experiment,sitting,1,34,switch,incongruant,dashed,triangle,blue,right,right,yes,0.9087910652160645,2021-11-04 14:46:00
8000,1,2,experiment,sitting,1,35,switch,congruant,solid,triangle,yellow,right,right,yes,0.8447070121765137,2021-11-04 14:46:00
8000,1,2,experiment,sitting,1,36,switch,congruant,dashed,triangle,yellow,left,right,no,0.8500728607177734,2021-11-04 14:46:00
8000,1,2,experiment,sitting,1,37,noswitch,incongruant,dashed,square,blue,left,left,yes,0.785106897354126,2021-11-04 14:46:00
8000,1,2,experiment,sitting,1,38,noswitch,congruant,dashed,square,yellow,left,left,yes,0.3880910873413086,2021-11-04 14:46:00
8000,1,2,experiment,sitting,1,39,noswitch,congruant,dashed,square,yellow,left,left,yes,1.209733009338379,2021-11-04 14:46:00
8000,1,2,experiment,sitting,1,40,switch,incongruant,solid,square,yellow,left,right,no,0.4977529048919678,2021-11-04 14:46:00
8000,1,2,experiment,sitting,1,41,noswitch,congruant,solid,triangle,yellow,right,right,yes,1.4358718395233154,2021-11-04 14:46:00
8000,1,2,experiment,sitting,1,42,switch,congruant,dashed,triangle,yellow,right,right,yes,0.9232358932495116,2021-11-04 14:46:00
8000,1,2,experiment,sitting,1,43,switch,congruant,solid,square,yellow,right,right,yes,0.9102590084075928,2021-11-04 14:46:00
8000,1,2,experiment,sitting,1,44,noswitch,incongruant,solid,triangle,blue,right,left,no,0.9800300598144532,2021-11-04 14:46:00
8000,1,2,experiment,sitting,1,45,switch,congruant,dashed,square,blue,left,left,yes,1.2999169826507568,2021-11-04 14:46:00
8000,1,2,experiment,sitting,1,46,switch,congruant,solid,square,blue,left,left,yes,1.3154051303863523,2021-11-04 14:46:00
8000,1,2,experiment,sitting,1,47,noswitch,congruant,solid,square,blue,left,left,yes,0.892056941986084,2021-11-04 14:46:00
8000,1,2,experiment,sitting,1,48,switch,incongruant,dashed,triangle,yellow,right,right,yes,0.4990561008453369,2021-11-04 14:46:00
8000,1,2,experiment,sitting,1,49,noswitch,congruant,dashed,triangle,blue,right,right,yes,0.4474949836730957,2021-11-04 14:46:00
8000,1,2,experiment,sitting,2,1,buffer,buffer,dashed,square,blue,left,left,yes,1.0585260391235352,2021-11-04 14:46:00
8000,1,2,experiment,sitting,2,2,switch,incongruant,solid,square,yellow,left,right,no,1.0725529193878174,2021-11-04 14:46:00
8000,1,2,experiment,sitting,2,3,noswitch,incongruant,solid,square,blue,left,left,yes,1.079590082168579,2021-11-04 14:46:00
8000,1,2,experiment,sitting,2,4,noswitch,incongruant,solid,square,yellow,left,right,no,1.06628680229187,2021-11-04 14:46:00
8000,1,2,experiment,sitting,2,5,noswitch,incongruant,solid,square,blue,left,left,yes,1.39479398727417,2021-11-04 14:46:00
8000,1,2,experiment,sitting,2,6,noswitch,incongruant,solid,square,yellow,left,right,no,0.8937811851501465,2021-11-04 14:46:00
8000,1,2,experiment,sitting,2,7,switch,congruant,dashed,triangle,yellow,right,right,yes,0.7870388031005859,2021-11-04 14:46:00
8000,1,2,experiment,sitting,2,8,switch,congruant,solid,triangle,yellow,left,right,no,0.779473066329956,2021-11-04 14:46:00
8000,1,2,experiment,sitting,2,9,noswitch,congruant,solid,square,yellow,right,right,yes,0.840195894241333,2021-11-04 14:46:00
8000,1,2,experiment,sitting,2,10,switch,incongruant,dashed,square,blue,right,left,no,1.1644399166107178,2021-11-04 14:46:00
8000,1,2,experiment,sitting,2,11,noswitch,congruant,dashed,square,yellow,left,left,yes,0.95737886428833,2021-11-04 14:46:00
8000,1,2,experiment,sitting,2,12,switch,congruant,solid,triangle,blue,left,left,yes,1.0082511901855469,2021-11-04 14:46:00
8000,1,2,experiment,sitting,2,13,switch,incongruant,dashed,triangle,blue,left,right,no,1.2007980346679688,2021-11-04 14:46:00
8000,1,2,experiment,sitting,2,14,switch,congruant,solid,triangle,yellow,right,right,yes,0.6364331245422363,2021-11-04 14:46:00
8000,1,2,experiment,sitting,2,15,switch,congruant,dashed,triangle,blue,left,right,no,1.3563048839569092,2021-11-04 14:46:00
8000,1,2,experiment,sitting,2,16,noswitch,congruant,dashed,triangle,blue,right,right,yes,0.9936280250549316,2021-11-04 14:46:00
8000,1,2,experiment,sitting,2,17,switch,incongruant,solid,triangle,blue,left,left,yes,1.05486798286438,2021-11-04 14:46:00
8000,1,2,experiment,sitting,2,18,switch,incongruant,dashed,triangle,blue,right,right,yes,0.9320199489593506,2021-11-04 14:46:00
8000,1,2,experiment,sitting,2,19,switch,incongruant,solid,triangle,blue,right,left,no,0.8916680812835693,2021-11-04 14:46:00
8000,1,2,experiment,sitting,2,20,noswitch,congruant,solid,triangle,blue,left,left,yes,0.9559540748596193,2021-11-04 14:46:00
8000,1,2,experiment,sitting,2,21,switch,incongruant,dashed,triangle,blue,right,right,yes,0.9642899036407472,2021-11-04 14:46:00
8000,1,2,experiment,sitting,2,22,switch,incongruant,solid,square,blue,left,left,yes,0.6416778564453125,2021-11-04 14:46:00
8000,1,2,experiment,sitting,2,23,noswitch,incongruant,solid,triangle,yellow,right,right,yes,0.5711770057678223,2021-11-04 14:46:00
8000,1,2,experiment,sitting,2,24,noswitch,congruant,solid,triangle,yellow,right,right,yes,0.3967139720916748,2021-11-04 14:46:00
8000,1,2,experiment,sitting,2,25,noswitch,congruant,solid,square,yellow,right,right,yes,0.3996069431304931,2021-11-04 14:46:00
8000,1,2,experiment,sitting,2,26,switch,incongruant,dashed,square,yellow,right,left,no,0.5419280529022217,2021-11-04 14:46:00
8000,1,2,experiment,sitting,2,27,noswitch,incongruant,dashed,triangle,yellow,right,right,yes,0.5849030017852783,2021-11-04 14:46:00
8000,1,2,experiment,sitting,2,28,noswitch,incongruant,dashed,square,blue,left,left,yes,0.3935799598693847,2021-11-04 14:46:00
8000,1,2,experiment,sitting,2,29,noswitch,incongruant,dashed,triangle,yellow,right,right,yes,0.3048171997070312,2021-11-04 14:46:00
8000,1,2,experiment,sitting,2,30,noswitch,incongruant,dashed,square,yellow,timeout,left,no,,2021-11-04 14:46:00
8000,1,2,experiment,sitting,2,31,noswitch,congruant,dashed,square,blue,left,left,yes,0.6665661334991455,2021-11-04 14:46:00
8000,1,2,experiment,sitting,2,32,switch,congruant,solid,square,blue,left,left,yes,0.5904769897460938,2021-11-04 14:46:00
8000,1,2,experiment,sitting,2,33,switch,congruant,dashed,square,blue,left,left,yes,0.647662878036499,2021-11-04 14:46:00
8000,1,2,experiment,sitting,2,34,noswitch,congruant,dashed,square,blue,left,left,yes,0.6136970520019531,2021-11-04 14:46:00
8000,1,2,experiment,sitting,2,35,noswitch,incongruant,dashed,triangle,yellow,right,right,yes,0.2840919494628906,2021-11-04 14:46:00
8000,1,2,experiment,sitting,2,36,noswitch,congruant,dashed,triangle,blue,right,right,yes,0.9060909748077391,2021-11-04 14:46:00
8000,1,2,experiment,sitting,2,37,noswitch,congruant,dashed,triangle,yellow,right,right,yes,0.4214940071105957,2021-11-04 14:46:00
8000,1,2,experiment,sitting,2,38,switch,incongruant,solid,square,blue,left,left,yes,1.1550588607788086,2021-11-04 14:46:00
8000,1,2,experiment,sitting,2,39,switch,congruant,dashed,square,yellow,left,left,yes,0.5074291229248047,2021-11-04 14:46:00
8000,1,2,experiment,sitting,2,40,noswitch,congruant,dashed,square,blue,left,left,yes,0.7002079486846924,2021-11-04 14:46:00
8000,1,2,experiment,sitting,2,41,switch,incongruant,solid,square,yellow,right,right,yes,1.2340271472930908,2021-11-04 14:46:00
8000,1,2,experiment,sitting,2,42,noswitch,incongruant,solid,square,blue,left,left,yes,1.169100999832153,2021-11-04 14:46:00
8000,1,2,experiment,sitting,2,43,noswitch,congruant,solid,triangle,blue,left,left,yes,0.4369208812713623,2021-11-04 14:46:00
8000,1,2,experiment,sitting,2,44,switch,congruant,dashed,square,yellow,left,left,yes,1.0767338275909424,2021-11-04 14:46:00
8000,1,2,experiment,sitting,2,45,switch,incongruant,solid,triangle,yellow,right,right,yes,0.6482000350952148,2021-11-04 14:46:00
8000,1,2,experiment,sitting,2,46,switch,congruant,dashed,triangle,yellow,right,right,yes,0.6361310482025146,2021-11-04 14:46:00
8000,1,2,experiment,sitting,2,47,switch,congruant,solid,triangle,yellow,right,right,yes,0.5746171474456787,2021-11-04 14:46:00
8000,1,2,experiment,sitting,2,48,noswitch,incongruant,solid,triangle,blue,left,left,yes,0.5066688060760498,2021-11-04 14:46:00
8000,1,2,experiment,sitting,2,49,switch,congruant,dashed,square,yellow,right,left,no,1.0236420631408691,2021-11-04 14:46:00
8000,1,2,experiment,sitting,3,1,buffer,buffer,solid,square,yellow,left,right,no,1.3403279781341553,2021-11-04 14:46:00
8000,1,2,experiment,sitting,3,2,noswitch,congruant,solid,square,yellow,right,right,yes,0.7281560897827148,2021-11-04 14:46:00
8000,1,2,experiment,sitting,3,3,noswitch,congruant,solid,triangle,yellow,right,right,yes,0.348719835281372,2021-11-04 14:46:00
8000,1,2,experiment,sitting,3,4,noswitch,congruant,solid,triangle,yellow,right,right,yes,0.66280198097229,2021-11-04 14:46:00
8000,1,2,experiment,sitting,3,5,noswitch,incongruant,solid,square,blue,left,left,yes,0.4214119911193847,2021-11-04 14:46:00
8000,1,2,experiment,sitting,3,6,noswitch,incongruant,solid,triangle,yellow,right,right,yes,0.4852418899536133,2021-11-04 14:46:00
8000,1,2,experiment,sitting,3,7,switch,congruant,dashed,triangle,yellow,right,right,yes,0.975356101989746,2021-11-04 14:46:00
8000,1,2,experiment,sitting,3,8,switch,incongruant,solid,square,blue,left,left,yes,0.4787611961364746,2021-11-04 14:46:00
8000,1,2,experiment,sitting,3,9,switch,congruant,dashed,square,yellow,left,left,yes,1.0302269458770752,2021-11-04 14:46:00
8000,1,2,experiment,sitting,3,10,switch,congruant,solid,square,blue,left,left,yes,0.4461700916290283,2021-11-04 14:46:00
8000,1,2,experiment,sitting,3,11,switch,incongruant,dashed,triangle,blue,right,right,yes,0.5443429946899414,2021-11-04 14:46:00
8000,1,2,experiment,sitting,3,12,noswitch,congruant,dashed,triangle,yellow,right,right,yes,0.7264339923858643,2021-11-04 14:46:00
8000,1,2,experiment,sitting,3,13,noswitch,incongruant,dashed,square,yellow,left,left,yes,0.3829731941223144,2021-11-04 14:46:00
8000,1,2,experiment,sitting,3,14,noswitch,incongruant,dashed,triangle,yellow,right,right,yes,0.5389151573181152,2021-11-04 14:46:00
8000,1,2,experiment,sitting,3,15,switch,incongruant,solid,square,blue,left,left,yes,0.9176900386810304,2021-11-04 14:46:00
8000,1,2,experiment,sitting,3,16,switch,congruant,dashed,square,yellow,left,left,yes,0.6974499225616455,2021-11-04 14:46:00
8000,1,2,experiment,sitting,3,17,switch,congruant,solid,square,blue,left,left,yes,0.6738319396972656,2021-11-04 14:46:00
8000,1,2,experiment,sitting,3,18,noswitch,incongruant,solid,square,yellow,left,right,no,0.6157031059265137,2021-11-04 14:46:00
8000,1,2,experiment,sitting,3,19,switch,incongruant,dashed,square,yellow,left,left,yes,0.9301760196685792,2021-11-04 14:46:00
8000,1,2,experiment,sitting,3,20,noswitch,incongruant,dashed,triangle,blue,right,right,yes,0.4409980773925781,2021-11-04 14:46:00
8000,1,2,experiment,sitting,3,21,noswitch,congruant,dashed,triangle,blue,right,right,yes,0.4967350959777832,2021-11-04 14:46:00
8000,1,2,experiment,sitting,3,22,noswitch,incongruant,dashed,square,blue,left,left,yes,0.5309958457946777,2021-11-04 14:46:00
8000,1,2,experiment,sitting,3,23,switch,congruant,solid,triangle,blue,right,left,no,1.0048859119415283,2021-11-04 14:46:00
8000,1,2,experiment,sitting,3,24,noswitch,congruant,solid,triangle,blue,left,left,yes,1.4064149856567385,2021-11-04 14:46:00
8000,1,2,experiment,sitting,3,25,noswitch,incongruant,solid,triangle,yellow,right,right,yes,0.9757320880889891,2021-11-04 14:46:00
8000,1,2,experiment,sitting,3,26,switch,incongruant,dashed,square,blue,left,left,yes,0.4558360576629638,2021-11-04 14:46:00
8000,1,2,experiment,sitting,3,27,switch,incongruant,solid,triangle,yellow,right,right,yes,0.7301759719848633,2021-11-04 14:46:00
8000,1,2,experiment,sitting,3,28,noswitch,incongruant,solid,triangle,blue,left,left,yes,0.3928170204162597,2021-11-04 14:46:00
8000,1,2,experiment,sitting,3,29,switch,incongruant,dashed,triangle,blue,left,right,no,0.8528149127960205,2021-11-04 14:46:00
8000,1,2,experiment,sitting,3,30,noswitch,incongruant,dashed,square,blue,left,left,yes,0.7978088855743408,2021-11-04 14:46:00
8000,1,2,experiment,sitting,3,31,noswitch,incongruant,dashed,triangle,yellow,right,right,yes,0.3367908000946045,2021-11-04 14:46:00
8000,1,2,experiment,sitting,3,32,noswitch,congruant,dashed,triangle,blue,right,right,yes,0.418842077255249,2021-11-04 14:46:00
8000,1,2,experiment,sitting,3,33,noswitch,incongruant,dashed,square,blue,left,left,yes,0.7758760452270508,2021-11-04 14:46:00
8000,1,2,experiment,sitting,3,34,switch,congruant,solid,triangle,blue,left,left,yes,0.3516290187835693,2021-11-04 14:46:00
8000,1,2,experiment,sitting,3,35,switch,incongruant,dashed,triangle,yellow,right,right,yes,0.5396418571472168,2021-11-04 14:46:00
8000,1,2,experiment,sitting,3,36,switch,congruant,solid,square,yellow,timeout,right,no,,2021-11-04 14:46:00
8000,1,2,experiment,sitting,3,37,switch,incongruant,dashed,square,blue,timeout,left,no,,2021-11-04 14:46:00
8000,1,2,experiment,sitting,3,38,noswitch,incongruant,dashed,triangle,blue,right,right,yes,0.5694420337677002,2021-11-04 14:46:00
8000,1,2,experiment,sitting,3,39,switch,congruant,solid,square,yellow,right,right,yes,0.8192410469055176,2021-11-04 14:46:00
8000,1,2,experiment,sitting,3,40,switch,incongruant,dashed,square,blue,left,left,yes,0.5981380939483643,2021-11-04 14:46:00
8000,1,2,experiment,sitting,3,41,switch,congruant,solid,square,blue,left,left,yes,0.9523468017578124,2021-11-04 14:46:00
8000,1,2,experiment,sitting,3,42,noswitch,congruant,solid,triangle,blue,right,left,no,0.6599991321563721,2021-11-04 14:46:00
8000,1,2,experiment,sitting,3,43,switch,congruant,dashed,square,yellow,left,left,yes,1.4469289779663086,2021-11-04 14:46:00
8000,1,2,experiment,sitting,3,44,switch,congruant,solid,triangle,blue,left,left,yes,1.358250856399536,2021-11-04 14:46:00
8000,1,2,experiment,sitting,3,45,switch,congruant,dashed,square,yellow,left,left,yes,1.0066380500793457,2021-11-04 14:46:00
8000,1,2,experiment,sitting,3,46,noswitch,incongruant,dashed,triangle,yellow,right,right,yes,0.7568979263305664,2021-11-04 14:46:00
8000,1,2,experiment,sitting,3,47,switch,congruant,solid,square,yellow,right,right,yes,0.4620139598846435,2021-11-04 14:46:00
8000,1,2,experiment,sitting,3,48,noswitch,congruant,solid,triangle,yellow,right,right,yes,0.5546109676361084,2021-11-04 14:46:00
8000,1,2,experiment,sitting,3,49,noswitch,congruant,solid,square,yellow,right,right,yes,0.6875200271606445,2021-11-04 14:46:00
8000,1,2,experiment,sitting,4,1,buffer,buffer,dashed,square,blue,left,left,yes,1.1017320156097412,2021-11-04 14:46:00
8000,1,2,experiment,sitting,4,2,noswitch,incongruant,dashed,triangle,blue,right,right,yes,0.308830976486206,2021-11-04 14:46:00
8000,1,2,experiment,sitting,4,3,noswitch,congruant,dashed,triangle,blue,right,right,yes,0.4848918914794922,2021-11-04 14:46:00
8000,1,2,experiment,sitting,4,4,noswitch,incongruant,dashed,square,blue,left,left,yes,1.1907670497894287,2021-11-04 14:46:00
8000,1,2,experiment,sitting,4,5,noswitch,congruant,dashed,square,blue,left,left,yes,0.6367430686950684,2021-11-04 14:46:00
8000,1,2,experiment,sitting,4,6,switch,congruant,solid,square,blue,left,left,yes,0.6294610500335693,2021-11-04 14:46:00
8000,1,2,experiment,sitting,4,7,switch,congruant,dashed,square,blue,left,left,yes,1.002372980117798,2021-11-04 14:46:00
8000,1,2,experiment,sitting,4,8,noswitch,incongruant,dashed,triangle,yellow,right,right,yes,0.5130729675292969,2021-11-04 14:46:00
8000,1,2,experiment,sitting,4,9,switch,congruant,solid,square,yellow,right,right,yes,0.3277230262756347,2021-11-04 14:46:00
8000,1,2,experiment,sitting,4,10,noswitch,congruant,solid,triangle,yellow,right,right,yes,0.3968830108642578,2021-11-04 14:46:00
8000,1,2,experiment,sitting,4,11,noswitch,incongruant,solid,square,blue,left,left,yes,0.5439929962158203,2021-11-04 14:46:00
8000,1,2,experiment,sitting,4,12,noswitch,congruant,solid,square,blue,left,left,yes,0.6225299835205078,2021-11-04 14:46:00
8000,1,2,experiment,sitting,4,13,noswitch,congruant,solid,triangle,blue,left,left,yes,0.6075670719146729,2021-11-04 14:46:00
8000,1,2,experiment,sitting,4,14,noswitch,congruant,solid,triangle,blue,left,left,yes,0.7802691459655762,2021-11-04 14:46:00
8000,1,2,experiment,sitting,4,15,noswitch,congruant,solid,square,blue,left,left,yes,0.4768080711364746,2021-11-04 14:46:00
8000,1,2,experiment,sitting,4,16,noswitch,incongruant,solid,square,yellow,right,right,yes,0.553922176361084,2021-11-04 14:46:00
8000,1,2,experiment,sitting,4,17,switch,congruant,dashed,triangle,yellow,right,right,yes,0.3761370182037353,2021-11-04 14:46:00
8000,1,2,experiment,sitting,4,18,noswitch,congruant,dashed,triangle,blue,right,right,yes,0.6908910274505615,2021-11-04 14:46:00
8000,1,2,experiment,sitting,4,19,switch,incongruant,solid,square,blue,left,left,yes,0.4529330730438232,2021-11-04 14:46:00
8000,1,2,experiment,sitting,4,20,switch,incongruant,dashed,triangle,yellow,right,right,yes,0.5677859783172607,2021-11-04 14:46:00
8000,1,2,experiment,sitting,4,21,switch,incongruant,solid,triangle,blue,left,left,yes,0.8729550838470459,2021-11-04 14:46:00
8000,1,2,experiment,sitting,4,22,switch,incongruant,dashed,triangle,blue,right,right,yes,0.4305260181427002,2021-11-04 14:46:00
8000,1,2,experiment,sitting,4,23,switch,congruant,solid,square,yellow,left,right,no,0.739069938659668,2021-11-04 14:46:00
8000,1,2,experiment,sitting,4,24,switch,incongruant,dashed,square,yellow,left,left,yes,0.6377768516540527,2021-11-04 14:46:00
8000,1,2,experiment,sitting,4,25,noswitch,incongruant,dashed,triangle,blue,right,right,yes,0.7084219455718994,2021-11-04 14:46:00
8000,1,2,experiment,sitting,4,26,switch,congruant,solid,triangle,yellow,right,right,yes,0.5060510635375977,2021-11-04 14:46:00
8000,1,2,experiment,sitting,4,27,noswitch,incongruant,solid,square,blue,left,left,yes,0.5312180519104004,2021-11-04 14:46:00
8000,1,2,experiment,sitting,4,28,switch,congruant,dashed,square,yellow,right,left,no,0.4675729274749756,2021-11-04 14:46:00
8000,1,2,experiment,sitting,4,29,switch,congruant,solid,triangle,blue,left,left,yes,1.1234819889068604,2021-11-04 14:46:00
8000,1,2,experiment,sitting,4,30,noswitch,incongruant,solid,triangle,yellow,right,right,yes,0.4964680671691894,2021-11-04 14:46:00
8000,1,2,experiment,sitting,4,31,switch,incongruant,dashed,square,yellow,left,left,yes,0.9339258670806884,2021-11-04 14:46:00
8000,1,2,experiment,sitting,4,32,noswitch,congruant,dashed,square,blue,left,left,yes,0.8988800048828125,2021-11-04 14:46:00
8000,1,2,experiment,sitting,4,33,switch,congruant,solid,triangle,blue,left,left,yes,1.1811468601226809,2021-11-04 14:46:00
8000,1,2,experiment,sitting,4,34,switch,congruant,dashed,square,yellow,right,left,no,1.1286919116973877,2021-11-04 14:46:00
8000,1,2,experiment,sitting,4,35,noswitch,incongruant,dashed,triangle,yellow,right,right,yes,0.72076416015625,2021-11-04 14:46:00
8000,1,2,experiment,sitting,4,36,switch,incongruant,solid,triangle,blue,left,left,yes,0.5922889709472656,2021-11-04 14:46:00
8000,1,2,experiment,sitting,4,37,noswitch,incongruant,solid,triangle,yellow,right,right,yes,1.406301975250244,2021-11-04 14:46:00
8000,1,2,experiment,sitting,4,38,switch,incongruant,dashed,square,yellow,left,left,yes,0.91644287109375,2021-11-04 14:46:00
8000,1,2,experiment,sitting,4,39,switch,incongruant,solid,square,yellow,right,right,yes,0.600322961807251,2021-11-04 14:46:00
8000,1,2,experiment,sitting,4,40,switch,incongruant,dashed,square,blue,left,left,yes,0.5248739719390869,2021-11-04 14:46:00
8000,1,2,experiment,sitting,4,41,switch,incongruant,solid,triangle,yellow,right,right,yes,0.9004759788513184,2021-11-04 14:46:00
8000,1,2,experiment,sitting,4,42,noswitch,congruant,solid,square,yellow,right,right,yes,0.654994010925293,2021-11-04 14:46:00
8000,1,2,experiment,sitting,4,43,noswitch,congruant,solid,square,yellow,right,right,yes,0.5878520011901855,2021-11-04 14:46:00
8000,1,2,experiment,sitting,4,44,switch,incongruant,dashed,square,yellow,left,left,yes,0.6387460231781006,2021-11-04 14:46:00
8000,1,2,experiment,sitting,4,45,switch,incongruant,solid,triangle,yellow,right,right,yes,0.4358580112457275,2021-11-04 14:46:00
8000,1,2,experiment,sitting,4,46,switch,congruant,dashed,triangle,yellow,right,right,yes,0.8039829730987549,2021-11-04 14:46:00
8000,1,2,experiment,sitting,4,47,noswitch,congruant,dashed,triangle,yellow,right,right,yes,0.7199530601501465,2021-11-04 14:46:00
8000,1,2,experiment,sitting,4,48,noswitch,congruant,dashed,triangle,blue,right,right,yes,0.5332250595092773,2021-11-04 14:46:00
8000,1,2,experiment,sitting,4,49,noswitch,incongruant,dashed,square,blue,left,left,yes,0.3291490077972412,2021-11-04 14:46:00
8001,1,10,experiment,sitting,1,1,buffer,buffer,solid,square,blue,left,left,yes,0.3802058696746826,2021-11-04 15:31:00
8001,1,10,experiment,sitting,1,2,noswitch,incongruant,solid,triangle,yellow,right,right,yes,0.3138661384582519,2021-11-04 15:31:00
8001,1,10,experiment,sitting,1,3,noswitch,incongruant,solid,square,blue,left,left,yes,0.4093890190124511,2021-11-04 15:31:00
8001,1,10,experiment,sitting,1,4,noswitch,congruant,solid,triangle,blue,right,left,no,0.6384539604187012,2021-11-04 15:31:00
8001,1,10,experiment,sitting,1,5,switch,incongruant,dashed,triangle,blue,left,right,no,0.5269780158996582,2021-11-04 15:31:00
8001,1,10,experiment,sitting,1,6,noswitch,incongruant,dashed,square,blue,left,left,yes,0.6787240505218506,2021-11-04 15:31:00
8001,1,10,experiment,sitting,1,7,noswitch,congruant,dashed,square,yellow,left,left,yes,0.9361691474914552,2021-11-04 15:31:00
8001,1,10,experiment,sitting,1,8,switch,incongruant,solid,triangle,yellow,right,right,yes,0.7656610012054443,2021-11-04 15:31:00
8001,1,10,experiment,sitting,1,9,noswitch,congruant,solid,triangle,yellow,right,right,yes,0.3379600048065185,2021-11-04 15:31:00
8001,1,10,experiment,sitting,1,10,noswitch,congruant,solid,square,yellow,right,right,yes,0.8078389167785645,2021-11-04 15:31:00
8001,1,10,experiment,sitting,1,11,switch,congruant,dashed,triangle,yellow,right,right,yes,0.9663209915161132,2021-11-04 15:31:00
8001,1,10,experiment,sitting,1,12,noswitch,incongruant,dashed,square,blue,left,left,yes,0.5035669803619385,2021-11-04 15:31:00
8001,1,10,experiment,sitting,1,13,noswitch,incongruant,dashed,triangle,blue,right,right,yes,0.7805559635162354,2021-11-04 15:31:00
8001,1,10,experiment,sitting,1,14,noswitch,incongruant,dashed,square,yellow,left,left,yes,0.6777629852294922,2021-11-04 15:31:00
8001,1,10,experiment,sitting,1,15,noswitch,congruant,dashed,square,blue,left,left,yes,0.7610399723052979,2021-11-04 15:31:00
8001,1,10,experiment,sitting,1,16,switch,congruant,solid,square,blue,left,left,yes,0.4595160484313965,2021-11-04 15:31:00
8001,1,10,experiment,sitting,1,17,switch,incongruant,dashed,triangle,blue,left,right,no,0.5372989177703857,2021-11-04 15:31:00
8001,1,10,experiment,sitting,1,18,switch,incongruant,solid,triangle,blue,left,left,yes,0.6434240341186523,2021-11-04 15:31:00
8001,1,10,experiment,sitting,1,19,noswitch,incongruant,solid,square,yellow,right,right,yes,0.99078106880188,2021-11-04 15:31:00
8001,1,10,experiment,sitting,1,20,switch,congruant,dashed,triangle,blue,right,right,yes,0.7344720363616943,2021-11-04 15:31:00
8001,1,10,experiment,sitting,1,21,switch,incongruant,solid,square,blue,left,left,yes,0.653555154800415,2021-11-04 15:31:00
8001,1,10,experiment,sitting,1,22,noswitch,congruant,solid,triangle,blue,right,left,no,0.9549601078033448,2021-11-04 15:31:00
8001,1,10,experiment,sitting,1,23,switch,incongruant,dashed,triangle,yellow,right,right,yes,0.9759039878845216,2021-11-04 15:31:00
8001,1,10,experiment,sitting,1,24,switch,congruant,solid,triangle,yellow,right,right,yes,0.3950400352478027,2021-11-04 15:31:00
8001,1,10,experiment,sitting,1,25,noswitch,incongruant,solid,triangle,blue,left,left,yes,0.3996269702911377,2021-11-04 15:31:00
8001,1,10,experiment,sitting,1,26,switch,incongruant,dashed,triangle,yellow,right,right,yes,0.4748749732971191,2021-11-04 15:31:00
8001,1,10,experiment,sitting,1,27,noswitch,congruant,dashed,triangle,yellow,right,right,yes,0.3013708591461181,2021-11-04 15:31:00
8001,1,10,experiment,sitting,1,28,noswitch,congruant,dashed,triangle,yellow,right,right,yes,0.3659639358520508,2021-11-04 15:31:00
8001,1,10,experiment,sitting,1,29,switch,incongruant,solid,square,blue,left,left,yes,0.4877240657806396,2021-11-04 15:31:00
8001,1,10,experiment,sitting,1,30,noswitch,incongruant,solid,square,yellow,left,right,no,0.617948055267334,2021-11-04 15:31:00
8001,1,10,experiment,sitting,1,31,noswitch,incongruant,solid,square,blue,left,left,yes,0.6507728099822998,2021-11-04 15:31:00
8001,1,10,experiment,sitting,1,32,noswitch,incongruant,solid,square,yellow,right,right,yes,0.4307529926300049,2021-11-04 15:31:00
8001,1,10,experiment,sitting,1,33,switch,incongruant,dashed,square,yellow,left,left,yes,0.7593178749084473,2021-11-04 15:31:00
8001,1,10,experiment,sitting,1,34,noswitch,congruant,dashed,square,yellow,left,left,yes,0.4597909450531006,2021-11-04 15:31:00
8001,1,10,experiment,sitting,1,35,switch,congruant,solid,square,blue,left,left,yes,0.8368039131164551,2021-11-04 15:31:00
8001,1,10,experiment,sitting,1,36,switch,congruant,dashed,square,blue,left,left,yes,0.7243490219116211,2021-11-04 15:31:00
8001,1,10,experiment,sitting,1,37,noswitch,incongruant,dashed,triangle,blue,right,right,yes,0.3667168617248535,2021-11-04 15:31:00
8001,1,10,experiment,sitting,1,38,noswitch,congruant,dashed,triangle,yellow,right,right,yes,0.3360061645507812,2021-11-04 15:31:00
8001,1,10,experiment,sitting,1,39,switch,congruant,solid,triangle,yellow,right,right,yes,0.3677499294281006,2021-11-04 15:31:00
8001,1,10,experiment,sitting,1,40,noswitch,congruant,solid,triangle,yellow,right,right,yes,0.3972940444946289,2021-11-04 15:31:00
8001,1,10,experiment,sitting,1,41,switch,congruant,dashed,triangle,blue,right,right,yes,0.7463939189910889,2021-11-04 15:31:00
8001,1,10,experiment,sitting,1,42,switch,congruant,solid,square,yellow,right,right,yes,0.5352809429168701,2021-11-04 15:31:00
8001,1,10,experiment,sitting,1,43,switch,incongruant,dashed,square,blue,left,left,yes,0.4947609901428222,2021-11-04 15:31:00
8001,1,10,experiment,sitting,1,44,switch,congruant,solid,triangle,blue,left,left,yes,0.9866440296173096,2021-11-04 15:31:00
8001,1,10,experiment,sitting,1,45,switch,congruant,dashed,square,blue,left,left,yes,0.6836838722229004,2021-11-04 15:31:00
8001,1,10,experiment,sitting,1,46,switch,incongruant,solid,square,yellow,right,right,yes,0.4605810642242431,2021-11-04 15:31:00
8001,1,10,experiment,sitting,1,47,switch,incongruant,dashed,square,yellow,left,left,yes,0.6917049884796143,2021-11-04 15:31:00
8001,1,10,experiment,sitting,1,48,noswitch,congruant,dashed,square,yellow,left,left,yes,0.6544680595397949,2021-11-04 15:31:00
8001,1,10,experiment,sitting,1,49,switch,congruant,solid,triangle,blue,left,left,yes,0.6551079750061035,2021-11-04 15:31:00
8001,1,10,experiment,sitting,2,1,buffer,buffer,dashed,square,blue,left,left,yes,0.5192549228668213,2021-11-04 15:31:00
8001,1,10,experiment,sitting,2,2,switch,congruant,solid,triangle,blue,left,left,yes,0.8179149627685547,2021-11-04 15:31:00
8001,1,10,experiment,sitting,2,3,switch,congruant,dashed,square,yellow,left,left,yes,0.5775949954986572,2021-11-04 15:31:00
8001,1,10,experiment,sitting,2,4,switch,congruant,solid,square,blue,left,left,yes,0.5362668037414551,2021-11-04 15:31:00
8001,1,10,experiment,sitting,2,5,noswitch,incongruant,solid,triangle,yellow,right,right,yes,0.6695029735565186,2021-11-04 15:31:00
8001,1,10,experiment,sitting,2,6,noswitch,congruant,solid,triangle,yellow,right,right,yes,0.4638481140136719,2021-11-04 15:31:00
8001,1,10,experiment,sitting,2,7,noswitch,congruant,solid,square,yellow,right,right,yes,0.8446941375732422,2021-11-04 15:31:00
8001,1,10,experiment,sitting,2,8,switch,congruant,dashed,triangle,blue,left,right,no,0.9982891082763672,2021-11-04 15:31:00
8001,1,10,experiment,sitting,2,9,noswitch,congruant,dashed,triangle,blue,left,right,no,0.892646074295044,2021-11-04 15:31:00
8001,1,10,experiment,sitting,2,10,noswitch,incongruant,dashed,square,yellow,left,left,yes,0.4442651271820068,2021-11-04 15:31:00
8001,1,10,experiment,sitting,2,11,noswitch,congruant,dashed,square,blue,left,left,yes,0.5778119564056396,2021-11-04 15:31:00
8001,1,10,experiment,sitting,2,12,switch,congruant,solid,square,blue,left,left,yes,0.5732300281524658,2021-11-04 15:31:00
8001,1,10,experiment,sitting,2,13,switch,congruant,dashed,square,yellow,left,left,yes,1.043126106262207,2021-11-04 15:31:00
8001,1,10,experiment,sitting,2,14,switch,incongruant,solid,square,yellow,left,right,no,0.6917321681976318,2021-11-04 15:31:00
8001,1,10,experiment,sitting,2,15,switch,congruant,dashed,triangle,blue,left,right,no,1.212981939315796,2021-11-04 15:31:00
8001,1,10,experiment,sitting,2,16,switch,congruant,solid,triangle,yellow,right,right,yes,0.8830468654632568,2021-11-04 15:31:00
8001,1,10,experiment,sitting,2,17,switch,congruant,dashed,triangle,yellow,right,right,yes,0.5130269527435303,2021-11-04 15:31:00
8001,1,10,experiment,sitting,2,18,noswitch,incongruant,dashed,square,blue,left,left,yes,0.7639811038970947,2021-11-04 15:31:00
8001,1,10,experiment,sitting,2,19,noswitch,incongruant,dashed,triangle,yellow,right,right,yes,0.8284389972686768,2021-11-04 15:31:00
8001,1,10,experiment,sitting,2,20,noswitch,incongruant,dashed,square,blue,left,left,yes,0.4503209590911865,2021-11-04 15:31:00
8001,1,10,experiment,sitting,2,21,switch,incongruant,solid,square,yellow,left,right,no,0.7560441493988037,2021-11-04 15:31:00
8001,1,10,experiment,sitting,2,22,noswitch,incongruant,solid,triangle,blue,left,left,yes,0.916140079498291,2021-11-04 15:31:00
8001,1,10,experiment,sitting,2,23,noswitch,incongruant,solid,square,yellow,right,right,yes,1.3478031158447266,2021-11-04 15:31:00
8001,1,10,experiment,sitting,2,24,noswitch,incongruant,solid,triangle,blue,left,left,yes,1.2259528636932373,2021-11-04 15:31:00
8001,1,10,experiment,sitting,2,25,switch,congruant,dashed,square,yellow,left,left,yes,0.5465340614318848,2021-11-04 15:31:00
8001,1,10,experiment,sitting,2,26,switch,incongruant,solid,triangle,yellow,right,right,yes,1.115631103515625,2021-11-04 15:31:00
8001,1,10,experiment,sitting,2,27,noswitch,congruant,solid,square,yellow,right,right,yes,0.425447940826416,2021-11-04 15:31:00
8001,1,10,experiment,sitting,2,28,switch,incongruant,dashed,square,blue,left,left,yes,0.718026876449585,2021-11-04 15:31:00
8001,1,10,experiment,sitting,2,29,noswitch,incongruant,dashed,triangle,blue,right,right,yes,0.4413189888000488,2021-11-04 15:31:00
8001,1,10,experiment,sitting,2,30,noswitch,incongruant,dashed,square,yellow,left,left,yes,0.7369859218597412,2021-11-04 15:31:00
8001,1,10,experiment,sitting,2,31,switch,congruant,solid,square,blue,left,left,yes,0.5513761043548584,2021-11-04 15:31:00
8001,1,10,experiment,sitting,2,32,noswitch,congruant,solid,triangle,blue,left,left,yes,0.659214973449707,2021-11-04 15:31:00
8001,1,10,experiment,sitting,2,33,noswitch,congruant,solid,square,blue,left,left,yes,0.5845880508422852,2021-11-04 15:31:00
8001,1,10,experiment,sitting,2,34,noswitch,congruant,solid,triangle,blue,left,left,yes,0.6641230583190918,2021-11-04 15:31:00
8001,1,10,experiment,sitting,2,35,switch,incongruant,dashed,triangle,yellow,right,right,yes,1.007045030593872,2021-11-04 15:31:00
8001,1,10,experiment,sitting,2,36,switch,incongruant,solid,square,blue,left,left,yes,0.9645950794219972,2021-11-04 15:31:00
8001,1,10,experiment,sitting,2,37,noswitch,incongruant,solid,triangle,yellow,right,right,yes,0.8130021095275879,2021-11-04 15:31:00
8001,1,10,experiment,sitting,2,38,switch,congruant,dashed,triangle,yellow,left,right,no,1.0970540046691897,2021-11-04 15:31:00
8001,1,10,experiment,sitting,2,39,switch,incongruant,solid,triangle,blue,left,left,yes,0.9857749938964844,2021-11-04 15:31:00
8001,1,10,experiment,sitting,2,40,switch,incongruant,dashed,triangle,blue,left,right,no,0.9882810115814208,2021-11-04 15:31:00
8001,1,10,experiment,sitting,2,41,switch,congruant,solid,square,yellow,right,right,yes,0.9510140419006348,2021-11-04 15:31:00
8001,1,10,experiment,sitting,2,42,switch,congruant,dashed,triangle,yellow,right,right,yes,1.2378809452056885,2021-11-04 15:31:00
8001,1,10,experiment,sitting,2,43,noswitch,congruant,dashed,triangle,yellow,right,right,yes,0.4772019386291504,2021-11-04 15:31:00
8001,1,10,experiment,sitting,2,44,noswitch,incongruant,dashed,square,blue,left,left,yes,0.8617620468139648,2021-11-04 15:31:00
8001,1,10,experiment,sitting,2,45,switch,congruant,solid,square,blue,left,left,yes,1.2857060432434082,2021-11-04 15:31:00
8001,1,10,experiment,sitting,2,46,noswitch,incongruant,solid,triangle,yellow,right,right,yes,0.7765030860900879,2021-11-04 15:31:00
8001,1,10,experiment,sitting,2,47,switch,incongruant,dashed,square,blue,left,left,yes,0.7170109748840332,2021-11-04 15:31:00
8001,1,10,experiment,sitting,2,48,noswitch,incongruant,dashed,triangle,blue,right,right,yes,0.7971689701080322,2021-11-04 15:31:00
8001,1,10,experiment,sitting,2,49,noswitch,incongruant,dashed,square,yellow,left,left,yes,0.6652219295501709,2021-11-04 15:31:00
8001,1,10,experiment,sitting,3,1,buffer,buffer,solid,square,yellow,right,right,yes,1.102436065673828,2021-11-04 15:31:00
8001,1,10,experiment,sitting,3,2,noswitch,congruant,solid,square,yellow,right,right,yes,0.4104058742523193,2021-11-04 15:31:00
8001,1,10,experiment,sitting,3,3,noswitch,incongruant,solid,triangle,blue,left,left,yes,0.3226850032806396,2021-11-04 15:31:00
8001,1,10,experiment,sitting,3,4,switch,incongruant,dashed,triangle,blue,right,right,yes,0.4076099395751953,2021-11-04 15:31:00
8001,1,10,experiment,sitting,3,5,noswitch,congruant,dashed,triangle,blue,right,right,yes,0.3630359172821045,2021-11-04 15:31:00
8001,1,10,experiment,sitting,3,6,switch,congruant,solid,square,yellow,right,right,yes,0.6957828998565674,2021-11-04 15:31:00
8001,1,10,experiment,sitting,3,7,switch,congruant,dashed,triangle,yellow,right,right,yes,0.8879520893096924,2021-11-04 15:31:00
8001,1,10,experiment,sitting,3,8,noswitch,incongruant,dashed,square,yellow,left,left,yes,0.4529910087585449,2021-11-04 15:31:00
8001,1,10,experiment,sitting,3,9,switch,incongruant,solid,triangle,yellow,right,right,yes,1.125777006149292,2021-11-04 15:31:00
8001,1,10,experiment,sitting,3,10,noswitch,incongruant,solid,triangle,blue,left,left,yes,0.9723010063171388,2021-11-04 15:31:00
8001,1,10,experiment,sitting,3,11,switch,congruant,dashed,square,blue,left,left,yes,0.8475079536437988,2021-11-04 15:31:00
8001,1,10,experiment,sitting,3,12,noswitch,incongruant,dashed,triangle,yellow,right,right,yes,0.5273189544677734,2021-11-04 15:31:00
8001,1,10,experiment,sitting,3,13,switch,incongruant,solid,square,blue,left,left,yes,0.6800370216369629,2021-11-04 15:31:00
8001,1,10,experiment,sitting,3,14,noswitch,congruant,solid,square,blue,left,left,yes,0.6177570819854736,2021-11-04 15:31:00
8001,1,10,experiment,sitting,3,15,noswitch,incongruant,solid,triangle,yellow,right,right,yes,0.3624341487884521,2021-11-04 15:31:00
8001,1,10,experiment,sitting,3,16,noswitch,congruant,solid,triangle,yellow,right,right,yes,0.408297061920166,2021-11-04 15:31:00
8001,1,10,experiment,sitting,3,17,noswitch,congruant,solid,triangle,yellow,right,right,yes,0.3811311721801758,2021-11-04 15:31:00
8001,1,10,experiment,sitting,3,18,noswitch,congruant,solid,square,yellow,right,right,yes,0.7364068031311035,2021-11-04 15:31:00
8001,1,10,experiment,sitting,3,19,switch,congruant,dashed,triangle,yellow,right,right,yes,0.8747379779815674,2021-11-04 15:31:00
8001,1,10,experiment,sitting,3,20,switch,incongruant,solid,triangle,blue,left,left,yes,0.4552490711212158,2021-11-04 15:31:00
8001,1,10,experiment,sitting,3,21,switch,incongruant,dashed,triangle,blue,left,right,no,0.56915283203125,2021-11-04 15:31:00
8001,1,10,experiment,sitting,3,22,switch,incongruant,solid,square,blue,left,left,yes,0.8765761852264404,2021-11-04 15:31:00
8001,1,10,experiment,sitting,3,23,noswitch,congruant,solid,square,blue,left,left,yes,0.660581111907959,2021-11-04 15:31:00
8001,1,10,experiment,sitting,3,24,switch,incongruant,dashed,triangle,yellow,right,right,yes,0.5089890956878662,2021-11-04 15:31:00
8001,1,10,experiment,sitting,3,25,noswitch,incongruant,dashed,square,yellow,left,left,yes,0.970304012298584,2021-11-04 15:31:00
8001,1,10,experiment,sitting,3,26,switch,congruant,solid,triangle,blue,left,left,yes,0.7859210968017578,2021-11-04 15:31:00
8001,1,10,experiment,sitting,3,27,switch,congruant,dashed,square,blue,left,left,yes,0.8170671463012695,2021-11-04 15:31:00
8001,1,10,experiment,sitting,3,28,noswitch,incongruant,dashed,triangle,yellow,right,right,yes,0.6032619476318359,2021-11-04 15:31:00
8001,1,10,experiment,sitting,3,29,noswitch,congruant,dashed,triangle,yellow,right,right,yes,0.6433119773864746,2021-11-04 15:31:00
8001,1,10,experiment,sitting,3,30,switch,incongruant,solid,square,blue,left,left,yes,0.5270509719848633,2021-11-04 15:31:00
8001,1,10,experiment,sitting,3,31,switch,congruant,dashed,square,yellow,left,left,yes,0.8734481334686279,2021-11-04 15:31:00
8001,1,10,experiment,sitting,3,32,noswitch,congruant,dashed,square,yellow,left,left,yes,0.6183929443359375,2021-11-04 15:31:00
8001,1,10,experiment,sitting,3,33,noswitch,incongruant,dashed,triangle,blue,right,right,yes,0.7208139896392822,2021-11-04 15:31:00
8001,1,10,experiment,sitting,3,34,switch,congruant,solid,triangle,yellow,right,right,yes,0.9909629821777344,2021-11-04 15:31:00
8001,1,10,experiment,sitting,3,35,switch,incongruant,dashed,square,blue,left,left,yes,0.5126068592071533,2021-11-04 15:31:00
8001,1,10,experiment,sitting,3,36,switch,congruant,solid,triangle,blue,left,left,yes,0.5348381996154785,2021-11-04 15:31:00
8001,1,10,experiment,sitting,3,37,switch,congruant,dashed,square,blue,left,left,yes,0.6808128356933594,2021-11-04 15:31:00
8001,1,10,experiment,sitting,3,38,noswitch,congruant,dashed,square,yellow,left,left,yes,0.6254851818084717,2021-11-04 15:31:00
8001,1,10,experiment,sitting,3,39,noswitch,incongruant,dashed,triangle,blue,right,right,yes,1.0295720100402832,2021-11-04 15:31:00
8001,1,10,experiment,sitting,3,40,noswitch,incongruant,dashed,square,blue,left,left,yes,0.8627150058746338,2021-11-04 15:31:00
8001,1,10,experiment,sitting,3,41,noswitch,incongruant,dashed,triangle,blue,right,right,yes,0.4776060581207275,2021-11-04 15:31:00
8001,1,10,experiment,sitting,3,42,switch,incongruant,solid,square,blue,left,left,yes,0.5870048999786377,2021-11-04 15:31:00
8001,1,10,experiment,sitting,3,43,noswitch,congruant,solid,triangle,blue,left,left,yes,0.7271928787231445,2021-11-04 15:31:00
8001,1,10,experiment,sitting,3,44,switch,congruant,dashed,square,yellow,left,left,yes,0.7152919769287109,2021-11-04 15:31:00
8001,1,10,experiment,sitting,3,45,switch,incongruant,solid,square,yellow,left,right,no,0.9144208431243896,2021-11-04 15:31:00
8001,1,10,experiment,sitting,3,46,switch,incongruant,dashed,square,blue,left,left,yes,0.5541191101074219,2021-11-04 15:31:00
8001,1,10,experiment,sitting,3,47,switch,incongruant,solid,square,yellow,right,right,yes,0.731982946395874,2021-11-04 15:31:00
8001,1,10,experiment,sitting,3,48,noswitch,congruant,solid,triangle,yellow,right,right,yes,0.4030919075012207,2021-11-04 15:31:00
8001,1,10,experiment,sitting,3,49,noswitch,congruant,solid,square,yellow,right,right,yes,0.4283540248870849,2021-11-04 15:31:00
8001,1,10,experiment,sitting,4,1,buffer,buffer,dashed,triangle,yellow,right,right,yes,1.03053617477417,2021-11-04 15:31:00
8001,1,10,experiment,sitting,4,2,switch,incongruant,solid,triangle,blue,left,left,yes,1.065295934677124,2021-11-04 15:31:00
8001,1,10,experiment,sitting,4,3,switch,congruant,dashed,square,blue,left,left,yes,0.8177139759063721,2021-11-04 15:31:00
8001,1,10,experiment,sitting,4,4,switch,incongruant,solid,square,yellow,right,right,yes,0.7655980587005615,2021-11-04 15:31:00
8001,1,10,experiment,sitting,4,5,switch,incongruant,dashed,square,yellow,left,left,yes,1.2799079418182373,2021-11-04 15:31:00
8001,1,10,experiment,sitting,4,6,noswitch,incongruant,dashed,triangle,yellow,right,right,yes,0.5839641094207764,2021-11-04 15:31:00
8001,1,10,experiment,sitting,4,7,switch,congruant,solid,triangle,yellow,right,right,yes,0.7314150333404541,2021-11-04 15:31:00
8001,1,10,experiment,sitting,4,8,switch,congruant,dashed,triangle,blue,right,right,yes,0.6698520183563232,2021-11-04 15:31:00
8001,1,10,experiment,sitting,4,9,switch,incongruant,solid,triangle,blue,left,left,yes,0.6658458709716797,2021-11-04 15:31:00
8001,1,10,experiment,sitting,4,10,noswitch,incongruant,solid,triangle,yellow,right,right,yes,0.5549721717834473,2021-11-04 15:31:00
8001,1,10,experiment,sitting,4,11,noswitch,incongruant,solid,square,blue,left,left,yes,0.590508222579956,2021-11-04 15:31:00
8001,1,10,experiment,sitting,4,12,switch,congruant,dashed,square,blue,left,left,yes,0.5095930099487305,2021-11-04 15:31:00
8001,1,10,experiment,sitting,4,13,noswitch,incongruant,dashed,triangle,yellow,right,right,yes,0.3732659816741943,2021-11-04 15:31:00
8001,1,10,experiment,sitting,4,14,noswitch,congruant,dashed,triangle,blue,left,right,no,0.941336154937744,2021-11-04 15:31:00
8001,1,10,experiment,sitting,4,15,noswitch,congruant,dashed,triangle,yellow,right,right,yes,1.0372600555419922,2021-11-04 15:31:00
8001,1,10,experiment,sitting,4,16,switch,incongruant,solid,triangle,blue,left,left,yes,0.94531512260437,2021-11-04 15:31:00
8001,1,10,experiment,sitting,4,17,noswitch,congruant,solid,square,blue,left,left,yes,0.6531190872192383,2021-11-04 15:31:00
8001,1,10,experiment,sitting,4,18,switch,congruant,dashed,square,blue,left,left,yes,0.7078769207000732,2021-11-04 15:31:00
8001,1,10,experiment,sitting,4,19,noswitch,incongruant,dashed,triangle,blue,right,right,yes,0.686647891998291,2021-11-04 15:31:00
8001,1,10,experiment,sitting,4,20,switch,congruant,solid,triangle,yellow,right,right,yes,0.7701737880706787,2021-11-04 15:31:00
8001,1,10,experiment,sitting,4,21,noswitch,congruant,solid,square,yellow,right,right,yes,1.2248079776763916,2021-11-04 15:31:00
8001,1,10,experiment,sitting,4,22,noswitch,incongruant,solid,square,blue,left,left,yes,0.5518069267272949,2021-11-04 15:31:00
8001,1,10,experiment,sitting,4,23,noswitch,incongruant,solid,square,yellow,right,right,yes,0.8512861728668213,2021-11-04 15:31:00
8001,1,10,experiment,sitting,4,24,switch,incongruant,dashed,square,blue,left,left,yes,0.8517229557037354,2021-11-04 15:31:00
8001,1,10,experiment,sitting,4,25,noswitch,congruant,dashed,square,yellow,left,left,yes,0.9734649658203124,2021-11-04 15:31:00
8001,1,10,experiment,sitting,4,26,noswitch,congruant,dashed,square,yellow,left,left,yes,0.8732891082763672,2021-11-04 15:31:00
8001,1,10,experiment,sitting,4,27,switch,incongruant,solid,triangle,yellow,right,right,yes,0.5868830680847168,2021-11-04 15:31:00
8001,1,10,experiment,sitting,4,28,switch,congruant,dashed,triangle,yellow,right,right,yes,1.013027906417847,2021-11-04 15:31:00
8001,1,10,experiment,sitting,4,29,noswitch,incongruant,dashed,square,blue,left,left,yes,0.6988139152526855,2021-11-04 15:31:00
8001,1,10,experiment,sitting,4,30,switch,congruant,solid,square,blue,left,left,yes,0.901036024093628,2021-11-04 15:31:00
8001,1,10,experiment,sitting,4,31,noswitch,incongruant,solid,square,yellow,right,right,yes,0.757922887802124,2021-11-04 15:31:00
8001,1,10,experiment,sitting,4,32,noswitch,congruant,solid,square,yellow,right,right,yes,0.4055979251861572,2021-11-04 15:31:00
8001,1,10,experiment,sitting,4,33,switch,incongruant,dashed,square,yellow,left,left,yes,1.1277518272399902,2021-11-04 15:31:00
8001,1,10,experiment,sitting,4,34,switch,congruant,solid,triangle,blue,left,left,yes,0.7143421173095703,2021-11-04 15:31:00
8001,1,10,experiment,sitting,4,35,noswitch,incongruant,solid,triangle,yellow,right,right,yes,0.574181079864502,2021-11-04 15:31:00
8001,1,10,experiment,sitting,4,36,switch,congruant,dashed,triangle,yellow,right,right,yes,0.7291991710662842,2021-11-04 15:31:00
8001,1,10,experiment,sitting,4,37,noswitch,incongruant,dashed,square,blue,left,left,yes,0.4214560985565185,2021-11-04 15:31:00
8001,1,10,experiment,sitting,4,38,noswitch,incongruant,dashed,triangle,blue,right,right,yes,0.516671895980835,2021-11-04 15:31:00
8001,1,10,experiment,sitting,4,39,noswitch,congruant,dashed,triangle,blue,right,right,yes,0.5434529781341553,2021-11-04 15:31:00
8001,1,10,experiment,sitting,4,40,switch,congruant,solid,triangle,yellow,right,right,yes,0.8784129619598389,2021-11-04 15:31:00
8001,1,10,experiment,sitting,4,41,noswitch,incongruant,solid,triangle,blue,left,left,yes,0.5854191780090332,2021-11-04 15:31:00
8001,1,10,experiment,sitting,4,42,switch,congruant,dashed,square,yellow,left,left,yes,1.0586090087890625,2021-11-04 15:31:00
8001,1,10,experiment,sitting,4,43,switch,congruant,solid,triangle,blue,left,left,yes,0.6501319408416748,2021-11-04 15:31:00
8001,1,10,experiment,sitting,4,44,switch,congruant,dashed,square,yellow,left,left,yes,0.9604988098144532,2021-11-04 15:31:00
8001,1,10,experiment,sitting,4,45,switch,incongruant,solid,square,yellow,right,right,yes,1.0784649848937988,2021-11-04 15:31:00
8001,1,10,experiment,sitting,4,46,noswitch,incongruant,solid,square,blue,left,left,yes,1.019089937210083,2021-11-04 15:31:00
8001,1,10,experiment,sitting,4,47,noswitch,congruant,solid,square,blue,left,left,yes,0.8197591304779053,2021-11-04 15:31:00
8001,1,10,experiment,sitting,4,48,switch,incongruant,dashed,triangle,yellow,right,right,yes,0.664438009262085,2021-11-04 15:31:00
8001,1,10,experiment,sitting,4,49,noswitch,congruant,dashed,triangle,blue,right,right,yes,0.7306599617004395,2021-11-04 15:31:00
8001,1,10,experiment,standing,1,1,buffer,buffer,dashed,triangle,yellow,right,right,yes,0.8377759456634521,2021-11-04 15:31:00
8001,1,10,experiment,standing,1,2,switch,incongruant,solid,square,blue,left,left,yes,0.4740309715270996,2021-11-04 15:31:00
8001,1,10,experiment,standing,1,3,noswitch,congruant,solid,triangle,blue,left,left,yes,0.588986873626709,2021-11-04 15:31:00
8001,1,10,experiment,standing,1,4,switch,congruant,dashed,square,yellow,right,left,no,0.7714419364929199,2021-11-04 15:31:00
8001,1,10,experiment,standing,1,5,switch,incongruant,solid,triangle,yellow,right,right,yes,0.4821500778198242,2021-11-04 15:31:00
8001,1,10,experiment,standing,1,6,switch,congruant,dashed,triangle,yellow,right,right,yes,0.9804859161376952,2021-11-04 15:31:00
8001,1,10,experiment,standing,1,7,switch,congruant,solid,square,yellow,right,right,yes,0.6920089721679688,2021-11-04 15:31:00
8001,1,10,experiment,standing,1,8,noswitch,congruant,solid,square,yellow,right,right,yes,0.6091420650482178,2021-11-04 15:31:00
8001,1,10,experiment,standing,1,9,switch,incongruant,dashed,square,blue,left,left,yes,0.7898890972137451,2021-11-04 15:31:00
8001,1,10,experiment,standing,1,10,switch,incongruant,solid,triangle,yellow,right,right,yes,0.4571969509124756,2021-11-04 15:31:00
8001,1,10,experiment,standing,1,11,switch,incongruant,dashed,square,blue,left,left,yes,0.8091299533843994,2021-11-04 15:31:00
8001,1,10,experiment,standing,1,12,switch,incongruant,solid,square,yellow,right,right,yes,0.7057528495788574,2021-11-04 15:31:00
8001,1,10,experiment,standing,1,13,switch,congruant,dashed,triangle,blue,right,right,yes,0.9426488876342772,2021-11-04 15:31:00
8001,1,10,experiment,standing,1,14,noswitch,congruant,dashed,triangle,yellow,right,right,yes,0.3659498691558838,2021-11-04 15:31:00
8001,1,10,experiment,standing,1,15,switch,incongruant,solid,square,blue,left,left,yes,0.7011420726776123,2021-11-04 15:31:00
8001,1,10,experiment,standing,1,16,noswitch,incongruant,solid,triangle,yellow,right,right,yes,0.6939330101013184,2021-11-04 15:31:00
8001,1,10,experiment,standing,1,17,noswitch,congruant,solid,square,yellow,right,right,yes,0.9346740245819092,2021-11-04 15:31:00
8001,1,10,experiment,standing,1,18,switch,congruant,dashed,triangle,yellow,right,right,yes,0.9092800617218018,2021-11-04 15:31:00
8001,1,10,experiment,standing,1,19,switch,congruant,solid,triangle,yellow,right,right,yes,0.7145450115203857,2021-11-04 15:31:00
8001,1,10,experiment,standing,1,20,noswitch,incongruant,solid,triangle,blue,left,left,yes,0.707374095916748,2021-11-04 15:31:00
8001,1,10,experiment,standing,1,21,switch,congruant,dashed,square,blue,left,left,yes,1.0789670944213867,2021-11-04 15:31:00
8001,1,10,experiment,standing,1,22,noswitch,incongruant,dashed,triangle,blue,left,right,no,0.7225360870361328,2021-11-04 15:31:00
8001,1,10,experiment,standing,1,23,noswitch,incongruant,dashed,square,yellow,left,left,yes,1.1254429817199707,2021-11-04 15:31:00
8001,1,10,experiment,standing,1,24,noswitch,incongruant,dashed,triangle,blue,right,right,yes,0.6228549480438232,2021-11-04 15:31:00
8001,1,10,experiment,standing,1,25,noswitch,congruant,dashed,triangle,blue,right,right,yes,0.4191670417785644,2021-11-04 15:31:00
8001,1,10,experiment,standing,1,26,switch,congruant,solid,square,yellow,right,right,yes,0.6359941959381104,2021-11-04 15:31:00
8001,1,10,experiment,standing,1,27,noswitch,congruant,solid,triangle,yellow,right,right,yes,0.412348985671997,2021-11-04 15:31:00
8001,1,10,experiment,standing,1,28,switch,incongruant,dashed,square,yellow,right,left,no,0.910048007965088,2021-11-04 15:31:00
8001,1,10,experiment,standing,1,29,noswitch,incongruant,dashed,triangle,blue,left,right,no,1.244067907333374,2021-11-04 15:31:00
8001,1,10,experiment,standing,1,30,noswitch,congruant,dashed,triangle,yellow,right,right,yes,0.7069211006164551,2021-11-04 15:31:00
8001,1,10,experiment,standing,1,31,noswitch,incongruant,dashed,square,yellow,left,left,yes,1.0164048671722412,2021-11-04 15:31:00
8001,1,10,experiment,standing,1,32,noswitch,congruant,dashed,square,yellow,left,left,yes,0.9089198112487792,2021-11-04 15:31:00
8001,1,10,experiment,standing,1,33,switch,incongruant,solid,square,yellow,right,right,yes,0.8546299934387207,2021-11-04 15:31:00
8001,1,10,experiment,standing,1,34,noswitch,incongruant,solid,square,blue,left,left,yes,0.7036421298980713,2021-11-04 15:31:00
8001,1,10,experiment,standing,1,35,noswitch,congruant,solid,square,blue,left,left,yes,0.4947431087493896,2021-11-04 15:31:00
8001,1,10,experiment,standing,1,36,switch,congruant,dashed,square,blue,left,left,yes,0.7371671199798584,2021-11-04 15:31:00
8001,1,10,experiment,standing,1,37,noswitch,incongruant,dashed,triangle,yellow,right,right,yes,0.6967940330505371,2021-11-04 15:31:00
8001,1,10,experiment,standing,1,38,noswitch,incongruant,dashed,square,yellow,timeout,left,no,,2021-11-04 15:31:00
8001,1,10,experiment,standing,1,39,switch,congruant,solid,triangle,blue,left,left,yes,0.8466768264770508,2021-11-04 15:31:00
8001,1,10,experiment,standing,1,40,noswitch,congruant,solid,square,blue,left,left,yes,0.7019519805908203,2021-11-04 15:31:00
8001,1,10,experiment,standing,1,41,switch,congruant,dashed,square,blue,left,left,yes,0.7555830478668213,2021-11-04 15:31:00
8001,1,10,experiment,standing,1,42,switch,congruant,solid,triangle,blue,left,left,yes,0.8332679271697998,2021-11-04 15:31:00
8001,1,10,experiment,standing,1,43,noswitch,congruant,solid,triangle,blue,left,left,yes,0.7166018486022949,2021-11-04 15:31:00
8001,1,10,experiment,standing,1,44,noswitch,congruant,solid,triangle,blue,left,left,yes,0.8824541568756104,2021-11-04 15:31:00
8001,1,10,experiment,standing,1,45,noswitch,incongruant,solid,triangle,yellow,right,right,yes,0.640545129776001,2021-11-04 15:31:00
8001,1,10,experiment,standing,1,46,switch,incongruant,dashed,square,blue,left,left,yes,0.6806550025939941,2021-11-04 15:31:00
8001,1,10,experiment,standing,1,47,noswitch,incongruant,dashed,triangle,yellow,right,right,yes,0.6083710193634033,2021-11-04 15:31:00
8001,1,10,experiment,standing,1,48,switch,incongruant,solid,square,blue,left,left,yes,0.8433480262756348,2021-11-04 15:31:00
8001,1,10,experiment,standing,1,49,switch,incongruant,dashed,triangle,blue,right,right,yes,1.1393201351165771,2021-11-04 15:31:00
8001,1,10,experiment,standing,2,1,buffer,buffer,dashed,triangle,blue,right,right,yes,0.9817638397216796,2021-11-04 15:31:00
8001,1,10,experiment,standing,2,2,switch,incongruant,solid,square,blue,left,left,yes,0.7347180843353271,2021-11-04 15:31:00
8001,1,10,experiment,standing,2,3,noswitch,congruant,solid,square,blue,left,left,yes,0.6079721450805664,2021-11-04 15:31:00
8001,1,10,experiment,standing,2,4,noswitch,incongruant,solid,triangle,yellow,right,right,yes,0.713965892791748,2021-11-04 15:31:00
8001,1,10,experiment,standing,2,5,switch,incongruant,dashed,square,blue,left,left,yes,0.6762259006500244,2021-11-04 15:31:00
8001,1,10,experiment,standing,2,6,noswitch,congruant,dashed,square,yellow,left,left,yes,0.9727828502655028,2021-11-04 15:31:00
8001,1,10,experiment,standing,2,7,noswitch,incongruant,dashed,triangle,blue,left,right,no,0.9838790893554688,2021-11-04 15:31:00
8001,1,10,experiment,standing,2,8,switch,congruant,solid,square,yellow,right,right,yes,0.7801988124847412,2021-11-04 15:31:00
8001,1,10,experiment,standing,2,9,noswitch,congruant,solid,triangle,yellow,right,right,yes,0.985835075378418,2021-11-04 15:31:00
8001,1,10,experiment,standing,2,10,switch,congruant,dashed,triangle,blue,right,right,yes,1.1273658275604248,2021-11-04 15:31:00
8001,1,10,experiment,standing,2,11,switch,incongruant,solid,square,blue,left,left,yes,0.8928940296173096,2021-11-04 15:31:00
8001,1,10,experiment,standing,2,12,switch,congruant,dashed,square,blue,left,left,yes,0.8444130420684814,2021-11-04 15:31:00
8001,1,10,experiment,standing,2,13,switch,incongruant,solid,triangle,yellow,timeout,right,no,,2021-11-04 15:31:00
8001,1,10,experiment,standing,2,14,noswitch,incongruant,solid,triangle,blue,left,left,yes,0.5987038612365723,2021-11-04 15:31:00
8001,1,10,experiment,standing,2,15,noswitch,congruant,solid,square,blue,left,left,yes,0.4073281288146972,2021-11-04 15:31:00
8001,1,10,experiment,standing,2,16,noswitch,congruant,solid,triangle,blue,left,left,yes,0.7311770915985107,2021-11-04 15:31:00
8001,1,10,experiment,standing,2,17,noswitch,congruant,solid,triangle,blue,left,left,yes,0.6180539131164551,2021-11-04 15:31:00
8001,1,10,experiment,standing,2,18,noswitch,congruant,solid,triangle,blue,left,left,yes,0.4417300224304199,2021-11-04 15:31:00
8001,1,10,experiment,standing,2,19,switch,congruant,dashed,square,yellow,left,left,yes,1.1004819869995115,2021-11-04 15:31:00
8001,1,10,experiment,standing,2,20,noswitch,incongruant,dashed,triangle,yellow,right,right,yes,0.629892110824585,2021-11-04 15:31:00
8001,1,10,experiment,standing,2,21,noswitch,incongruant,dashed,square,blue,left,left,yes,0.8301939964294434,2021-11-04 15:31:00
8001,1,10,experiment,standing,2,22,switch,incongruant,solid,triangle,yellow,right,right,yes,0.5469958782196045,2021-11-04 15:31:00
8001,1,10,experiment,standing,2,23,switch,congruant,dashed,triangle,blue,left,right,no,0.6073670387268066,2021-11-04 15:31:00
8001,1,10,experiment,standing,2,24,noswitch,incongruant,dashed,square,yellow,left,left,yes,0.7442681789398193,2021-11-04 15:31:00
8001,1,10,experiment,standing,2,25,noswitch,incongruant,dashed,triangle,blue,right,right,yes,0.6256380081176758,2021-11-04 15:31:00
8001,1,10,experiment,standing,2,26,switch,congruant,solid,square,yellow,right,right,yes,0.4144470691680908,2021-11-04 15:31:00
8001,1,10,experiment,standing,2,27,switch,incongruant,dashed,square,blue,left,left,yes,0.5337529182434082,2021-11-04 15:31:00
8001,1,10,experiment,standing,2,28,noswitch,congruant,dashed,square,yellow,left,left,yes,0.8129570484161377,2021-11-04 15:31:00
8001,1,10,experiment,standing,2,29,switch,incongruant,solid,square,yellow,right,right,yes,0.5752050876617432,2021-11-04 15:31:00
8001,1,10,experiment,standing,2,30,switch,incongruant,dashed,square,yellow,left,left,yes,0.6134989261627197,2021-11-04 15:31:00
8001,1,10,experiment,standing,2,31,noswitch,congruant,dashed,square,blue,left,left,yes,0.6053581237792969,2021-11-04 15:31:00
8001,1,10,experiment,standing,2,32,noswitch,congruant,dashed,square,yellow,left,left,yes,0.6080880165100098,2021-11-04 15:31:00
8001,1,10,experiment,standing,2,33,noswitch,incongruant,dashed,triangle,blue,right,right,yes,0.6838099956512451,2021-11-04 15:31:00
8001,1,10,experiment,standing,2,34,switch,congruant,solid,triangle,yellow,right,right,yes,0.5733819007873535,2021-11-04 15:31:00
8001,1,10,experiment,standing,2,35,noswitch,congruant,solid,triangle,yellow,right,right,yes,0.3810198307037353,2021-11-04 15:31:00
8001,1,10,experiment,standing,2,36,switch,congruant,dashed,triangle,yellow,right,right,yes,0.7737441062927246,2021-11-04 15:31:00
8001,1,10,experiment,standing,2,37,noswitch,congruant,dashed,triangle,yellow,right,right,yes,0.5934019088745117,2021-11-04 15:31:00
8001,1,10,experiment,standing,2,38,switch,incongruant,solid,square,blue,left,left,yes,0.3643829822540283,2021-11-04 15:31:00
8001,1,10,experiment,standing,2,39,noswitch,congruant,solid,square,blue,left,left,yes,0.4116179943084717,2021-11-04 15:31:00
8001,1,10,experiment,standing,2,40,switch,incongruant,dashed,triangle,yellow,right,right,yes,0.4102981090545654,2021-11-04 15:31:00
8001,1,10,experiment,standing,2,41,switch,incongruant,solid,triangle,blue,left,left,yes,0.6467239856719971,2021-11-04 15:31:00
8001,1,10,experiment,standing,2,42,switch,incongruant,dashed,triangle,yellow,right,right,yes,0.5679960250854492,2021-11-04 15:31:00
8001,1,10,experiment,standing,2,43,switch,congruant,solid,square,yellow,right,right,yes,0.5467708110809326,2021-11-04 15:31:00
8001,1,10,experiment,standing,2,44,noswitch,incongruant,solid,triangle,blue,left,left,yes,0.5864958763122559,2021-11-04 15:31:00
8001,1,10,experiment,standing,2,45,switch,incongruant,dashed,triangle,yellow,right,right,yes,0.5299429893493652,2021-11-04 15:31:00
8001,1,10,experiment,standing,2,46,noswitch,incongruant,dashed,square,blue,left,left,yes,0.4645569324493408,2021-11-04 15:31:00
8001,1,10,experiment,standing,2,47,switch,incongruant,solid,square,yellow,right,right,yes,0.807171106338501,2021-11-04 15:31:00
8001,1,10,experiment,standing,2,48,noswitch,congruant,solid,square,yellow,right,right,yes,0.3661000728607178,2021-11-04 15:31:00
8001,1,10,experiment,standing,2,49,switch,congruant,dashed,triangle,blue,right,right,yes,0.929784059524536,2021-11-04 15:31:00
8001,1,10,experiment,standing,3,1,buffer,buffer,dashed,triangle,blue,right,right,yes,0.3905119895935058,2021-11-04 15:31:00
8001,1,10,experiment,standing,3,2,switch,congruant,solid,square,yellow,right,right,yes,0.3289790153503418,2021-11-04 15:31:00
8001,1,10,experiment,standing,3,3,noswitch,incongruant,solid,square,blue,left,left,yes,0.458881139755249,2021-11-04 15:31:00
8001,1,10,experiment,standing,3,4,switch,congruant,dashed,square,blue,left,left,yes,0.4066410064697265,2021-11-04 15:31:00
8001,1,10,experiment,standing,3,5,noswitch,incongruant,dashed,triangle,blue,right,right,yes,0.6997549533843994,2021-11-04 15:31:00
8001,1,10,experiment,standing,3,6,noswitch,congruant,dashed,triangle,blue,right,right,yes,0.3906440734863281,2021-11-04 15:31:00
8001,1,10,experiment,standing,3,7,noswitch,incongruant,dashed,square,yellow,left,left,yes,0.8164081573486328,2021-11-04 15:31:00
8001,1,10,experiment,standing,3,8,switch,congruant,solid,square,blue,left,left,yes,0.5125880241394043,2021-11-04 15:31:00
8001,1,10,experiment,standing,3,9,switch,incongruant,dashed,triangle,yellow,right,right,yes,0.7011289596557617,2021-11-04 15:31:00
8001,1,10,experiment,standing,3,10,switch,congruant,solid,triangle,yellow,right,right,yes,0.5753159523010254,2021-11-04 15:31:00
8001,1,10,experiment,standing,3,11,switch,incongruant,dashed,square,yellow,left,left,yes,0.535114049911499,2021-11-04 15:31:00
8001,1,10,experiment,standing,3,12,noswitch,incongruant,dashed,triangle,blue,right,right,yes,0.6383209228515625,2021-11-04 15:31:00
8001,1,10,experiment,standing,3,13,switch,incongruant,solid,triangle,blue,left,left,yes,0.6442358493804932,2021-11-04 15:31:00
8001,1,10,experiment,standing,3,14,switch,congruant,dashed,square,blue,left,left,yes,0.4605970382690429,2021-11-04 15:31:00
8001,1,10,experiment,standing,3,15,switch,incongruant,solid,square,yellow,right,right,yes,0.6426799297332764,2021-11-04 15:31:00
8001,1,10,experiment,standing,3,16,noswitch,incongruant,solid,square,blue,left,left,yes,0.5063960552215576,2021-11-04 15:31:00
8001,1,10,experiment,standing,3,17,switch,incongruant,dashed,triangle,yellow,right,right,yes,0.6796829700469971,2021-11-04 15:31:00
8001,1,10,experiment,standing,3,18,switch,congruant,solid,triangle,yellow,right,right,yes,0.653033971786499,2021-11-04 15:31:00
8001,1,10,experiment,standing,3,19,switch,incongruant,dashed,square,yellow,left,left,yes,0.8091068267822266,2021-11-04 15:31:00
8001,1,10,experiment,standing,3,20,noswitch,congruant,dashed,square,blue,left,left,yes,0.5120100975036621,2021-11-04 15:31:00
8001,1,10,experiment,standing,3,21,switch,congruant,solid,triangle,blue,left,left,yes,0.9346859455108644,2021-11-04 15:31:00
8001,1,10,experiment,standing,3,22,noswitch,incongruant,solid,square,yellow,right,right,yes,0.5592858791351318,2021-11-04 15:31:00
8001,1,10,experiment,standing,3,23,switch,congruant,dashed,triangle,yellow,right,right,yes,0.7391378879547119,2021-11-04 15:31:00
8001,1,10,experiment,standing,3,24,noswitch,congruant,dashed,triangle,yellow,right,right,yes,0.5069718360900879,2021-11-04 15:31:00
8001,1,10,experiment,standing,3,25,switch,congruant,solid,triangle,yellow,right,right,yes,0.6311509609222412,2021-11-04 15:31:00
8001,1,10,experiment,standing,3,26,switch,incongruant,dashed,square,blue,left,left,yes,0.8005149364471436,2021-11-04 15:31:00
8001,1,10,experiment,standing,3,27,switch,incongruant,solid,square,yellow,right,right,yes,0.8017771244049072,2021-11-04 15:31:00
8001,1,10,experiment,standing,3,28,noswitch,congruant,solid,triangle,yellow,right,right,yes,0.6372699737548828,2021-11-04 15:31:00
8001,1,10,experiment,standing,3,29,noswitch,incongruant,solid,square,blue,left,left,yes,0.5206499099731445,2021-11-04 15:31:00
8001,1,10,experiment,standing,3,30,noswitch,congruant,solid,triangle,blue,left,left,yes,0.976630926132202,2021-11-04 15:31:00
8001,1,10,experiment,standing,3,31,switch,incongruant,dashed,triangle,yellow,right,right,yes,0.5297958850860596,2021-11-04 15:31:00
8001,1,10,experiment,standing,3,32,switch,congruant,solid,triangle,yellow,right,right,yes,0.7043671607971191,2021-11-04 15:31:00
8001,1,10,experiment,standing,3,33,noswitch,congruant,solid,square,yellow,right,right,yes,0.9063701629638672,2021-11-04 15:31:00
8001,1,10,experiment,standing,3,34,noswitch,incongruant,solid,triangle,blue,left,left,yes,0.6688120365142822,2021-11-04 15:31:00
8001,1,10,experiment,standing,3,35,noswitch,congruant,solid,triangle,blue,left,left,yes,0.6559391021728516,2021-11-04 15:31:00
8001,1,10,experiment,standing,3,36,noswitch,incongruant,solid,square,yellow,right,right,yes,0.4090719223022461,2021-11-04 15:31:00
8001,1,10,experiment,standing,3,37,noswitch,congruant,solid,triangle,yellow,right,right,yes,0.4167819023132324,2021-11-04 15:31:00
8001,1,10,experiment,standing,3,38,noswitch,incongruant,solid,triangle,blue,left,left,yes,0.4213118553161621,2021-11-04 15:31:00
8001,1,10,experiment,standing,3,39,switch,incongruant,dashed,triangle,yellow,right,right,yes,0.5384840965270996,2021-11-04 15:31:00
8001,1,10,experiment,standing,3,40,noswitch,incongruant,dashed,square,blue,left,left,yes,0.563183069229126,2021-11-04 15:31:00
8001,1,10,experiment,standing,3,41,switch,congruant,solid,square,blue,left,left,yes,0.6244540214538574,2021-11-04 15:31:00
8001,1,10,experiment,standing,3,42,switch,congruant,dashed,square,yellow,left,left,yes,0.9804868698120116,2021-11-04 15:31:00
8001,1,10,experiment,standing,3,43,switch,congruant,solid,square,blue,left,left,yes,0.7260980606079102,2021-11-04 15:31:00
8001,1,10,experiment,standing,3,44,switch,incongruant,dashed,triangle,blue,right,right,yes,0.7064659595489502,2021-11-04 15:31:00
8001,1,10,experiment,standing,3,45,noswitch,congruant,dashed,triangle,blue,right,right,yes,0.6124758720397949,2021-11-04 15:31:00
8001,1,10,experiment,standing,3,46,noswitch,incongruant,dashed,square,yellow,left,left,yes,0.6774561405181885,2021-11-04 15:31:00
8001,1,10,experiment,standing,3,47,noswitch,congruant,dashed,square,yellow,left,left,yes,0.3761711120605469,2021-11-04 15:31:00
8001,1,10,experiment,standing,3,48,noswitch,congruant,dashed,square,blue,left,left,yes,0.800199031829834,2021-11-04 15:31:00
8001,1,10,experiment,standing,3,49,noswitch,incongruant,dashed,triangle,blue,right,right,yes,0.8658061027526855,2021-11-04 15:31:00
8001,1,10,experiment,standing,4,1,buffer,buffer,dashed,square,yellow,left,left,yes,0.5628888607025146,2021-11-04 15:31:00
8001,1,10,experiment,standing,4,2,switch,incongruant,solid,square,yellow,right,right,yes,0.6815078258514404,2021-11-04 15:31:00
8001,1,10,experiment,standing,4,3,noswitch,congruant,solid,square,yellow,right,right,yes,0.444810152053833,2021-11-04 15:31:00
8001,1,10,experiment,standing,4,4,switch,incongruant,dashed,square,blue,left,left,yes,0.6951541900634766,2021-11-04 15:31:00
8001,1,10,experiment,standing,4,5,noswitch,incongruant,dashed,triangle,blue,right,right,yes,0.666377067565918,2021-11-04 15:31:00
8001,1,10,experiment,standing,4,6,switch,incongruant,solid,square,blue,left,left,yes,0.512883186340332,2021-11-04 15:31:00
8001,1,10,experiment,standing,4,7,noswitch,congruant,solid,square,blue,left,left,yes,0.3558850288391113,2021-11-04 15:31:00
8001,1,10,experiment,standing,4,8,noswitch,incongruant,solid,square,yellow,right,right,yes,0.5458440780639648,2021-11-04 15:31:00
8001,1,10,experiment,standing,4,9,switch,congruant,dashed,triangle,blue,right,right,yes,0.693444013595581,2021-11-04 15:31:00
8001,1,10,experiment,standing,4,10,switch,congruant,solid,triangle,yellow,right,right,yes,0.3971610069274902,2021-11-04 15:31:00
8001,1,10,experiment,standing,4,11,noswitch,incongruant,solid,triangle,blue,left,left,yes,0.3698201179504394,2021-11-04 15:31:00
8001,1,10,experiment,standing,4,12,switch,congruant,dashed,square,yellow,left,left,yes,0.4775700569152832,2021-11-04 15:31:00
8001,1,10,experiment,standing,4,13,switch,incongruant,solid,square,yellow,right,right,yes,0.4955730438232422,2021-11-04 15:31:00
8001,1,10,experiment,standing,4,14,noswitch,incongruant,solid,triangle,blue,left,left,yes,0.4963250160217285,2021-11-04 15:31:00
8001,1,10,experiment,standing,4,15,noswitch,congruant,solid,square,blue,left,left,yes,0.3807780742645263,2021-11-04 15:31:00
8001,1,10,experiment,standing,4,16,noswitch,congruant,solid,square,blue,left,left,yes,0.5879120826721191,2021-11-04 15:31:00
8001,1,10,experiment,standing,4,17,noswitch,congruant,solid,triangle,blue,left,left,yes,0.6925601959228516,2021-11-04 15:31:00
8001,1,10,experiment,standing,4,18,noswitch,incongruant,solid,square,yellow,right,right,yes,0.3400769233703613,2021-11-04 15:31:00
8001,1,10,experiment,standing,4,19,switch,incongruant,dashed,square,yellow,left,left,yes,0.554332971572876,2021-11-04 15:31:00
8001,1,10,experiment,standing,4,20,noswitch,congruant,dashed,square,blue,left,left,yes,1.0249199867248535,2021-11-04 15:31:00
8001,1,10,experiment,standing,4,21,noswitch,congruant,dashed,square,blue,left,left,yes,0.4576778411865234,2021-11-04 15:31:00
8001,1,10,experiment,standing,4,22,noswitch,congruant,dashed,square,yellow,left,left,yes,0.663801908493042,2021-11-04 15:31:00
8001,1,10,experiment,standing,4,23,switch,congruant,solid,triangle,blue,left,left,yes,0.8359391689300537,2021-11-04 15:31:00
8001,1,10,experiment,standing,4,24,noswitch,incongruant,solid,triangle,yellow,right,right,yes,0.5237441062927246,2021-11-04 15:31:00
8001,1,10,experiment,standing,4,25,switch,incongruant,dashed,square,blue,left,left,yes,0.4996199607849121,2021-11-04 15:31:00
8001,1,10,experiment,standing,4,26,noswitch,congruant,dashed,square,blue,left,left,yes,0.4090678691864013,2021-11-04 15:31:00
8001,1,10,experiment,standing,4,27,noswitch,incongruant,dashed,triangle,blue,left,right,no,0.7159788608551025,2021-11-04 15:31:00
8001,1,10,experiment,standing,4,28,noswitch,congruant,dashed,triangle,yellow,right,right,yes,0.5617830753326416,2021-11-04 15:31:00
8001,1,10,experiment,standing,4,29,switch,incongruant,solid,triangle,blue,left,left,yes,0.4640021324157715,2021-11-04 15:31:00
8001,1,10,experiment,standing,4,30,switch,incongruant,dashed,triangle,blue,right,right,yes,0.9543941020965576,2021-11-04 15:31:00
8001,1,10,experiment,standing,4,31,noswitch,congruant,dashed,triangle,yellow,right,right,yes,1.0464398860931396,2021-11-04 15:31:00
8001,1,10,experiment,standing,4,32,noswitch,congruant,dashed,triangle,yellow,right,right,yes,0.3380329608917236,2021-11-04 15:31:00
8001,1,10,experiment,standing,4,33,switch,incongruant,solid,triangle,blue,left,left,yes,0.4423978328704834,2021-11-04 15:31:00
8001,1,10,experiment,standing,4,34,switch,incongruant,dashed,triangle,blue,right,right,yes,0.6594669818878174,2021-11-04 15:31:00
8001,1,10,experiment,standing,4,35,noswitch,congruant,dashed,triangle,blue,right,right,yes,0.3704018592834472,2021-11-04 15:31:00
8001,1,10,experiment,standing,4,36,noswitch,congruant,dashed,triangle,yellow,right,right,yes,0.6647529602050781,2021-11-04 15:31:00
8001,1,10,experiment,standing,4,37,switch,incongruant,solid,square,blue,left,left,yes,0.7746591567993164,2021-11-04 15:31:00
8001,1,10,experiment,standing,4,38,switch,incongruant,dashed,triangle,yellow,right,right,yes,0.3906159400939941,2021-11-04 15:31:00
8001,1,10,experiment,standing,4,39,switch,congruant,solid,triangle,yellow,right,right,yes,0.5825140476226807,2021-11-04 15:31:00
8001,1,10,experiment,standing,4,40,switch,incongruant,dashed,square,yellow,left,left,yes,0.3088009357452392,2021-11-04 15:31:00
8001,1,10,experiment,standing,4,41,switch,incongruant,solid,triangle,yellow,right,right,yes,0.8324649333953857,2021-11-04 15:31:00
8001,1,10,experiment,standing,4,42,noswitch,congruant,solid,triangle,yellow,right,right,yes,0.4890518188476562,2021-11-04 15:31:00
8001,1,10,experiment,standing,4,43,noswitch,congruant,solid,triangle,yellow,right,right,yes,0.37664794921875,2021-11-04 15:31:00
8001,1,10,experiment,standing,4,44,switch,incongruant,dashed,square,yellow,left,left,yes,0.7754299640655518,2021-11-04 15:31:00
8001,1,10,experiment,standing,4,45,switch,congruant,solid,square,blue,left,left,yes,0.596121072769165,2021-11-04 15:31:00
8001,1,10,experiment,standing,4,46,switch,congruant,dashed,square,blue,left,left,yes,0.6074779033660889,2021-11-04 15:31:00
8001,1,10,experiment,standing,4,47,noswitch,incongruant,dashed,triangle,yellow,right,right,yes,0.6677260398864746,2021-11-04 15:31:00
8001,1,10,experiment,standing,4,48,switch,congruant,solid,square,yellow,right,right,yes,0.3825850486755371,2021-11-04 15:31:00
8001,1,10,experiment,standing,4,49,switch,incongruant,dashed,square,yellow,left,left,yes,0.5407099723815918,2021-11-04 15:31:00
8002,1,3,experiment,standing,1,1,buffer,buffer,solid,triangle,yellow,left,left,yes,0.8082849979400635,2021-11-04 15:59:00
8002,1,3,experiment,standing,1,2,noswitch,incongruant,solid,triangle,blue,left,right,no,0.6760411262512207,2021-11-04 15:59:00
8002,1,3,experiment,standing,1,3,switch,congruant,dashed,square,yellow,right,right,yes,0.4640500545501709,2021-11-04 15:59:00
8002,1,3,experiment,standing,1,4,switch,incongruant,solid,triangle,yellow,left,left,yes,0.5860209465026855,2021-11-04 15:59:00
